subject_id	trial	decision	event_label	event_system_timestamp	event_wall_time
ML02	0	0	experiment_start	857891127	857.9856968000
ML02	-1	0	practice_trial_start	869143627	869.1437232000
ML02	-1	0	fixation_on	869145055	869.1451290000
ML02	-1	0	fixation_acquired	869799562	869.7996437000
ML02	-1	1	stim1_on	869874407	869.8750423000
ML02	-1	1	stim1_off	870425031	870.4250463000
ML02	-1	1	response1	872080441	872.0804619000
ML02	-1	2	stim2_on	872355726	872.3557634000
ML02	-1	2	stim2_off	873109811	873.1098505000
ML02	-1	2	response2	874113806	874.1138330000
ML02	-1	0	practice_trial_end	874341307	874.3413704000
ML02	-2	0	practice_trial_start	887299700	887.2997983000
ML02	-2	0	fixation_on	887300389	887.3004000000
ML02	-2	0	fixation_acquired	887574604	887.5746456000
ML02	-2	1	stim1_on	887615648	887.6156677000
ML02	-2	1	stim1_off	888060476	888.0604953000
ML02	-2	1	response1	889487325	889.4873602000
ML02	-2	2	stim2_on	889713686	889.7137100000
ML02	-2	2	stim2_off	890475135	890.4751497000
ML02	-2	2	response2	891025727	891.0257415000
ML02	-2	0	practice_trial_end	891225032	891.2250507000
ML02	-3	0	practice_trial_start	895499127	895.4992259000
ML02	-3	0	fixation_on	895500051	895.5001177000
ML02	-3	0	fixation_acquired	895797826	895.7978646000
ML02	-3	1	stim1_on	895836485	895.8365041000
ML02	-3	1	stim1_off	896300450	896.3004652000
ML02	-3	1	response1	896978911	896.9789292000
ML02	-3	2	stim2_on	897250753	897.2507749000
ML02	-3	2	stim2_off	897897378	897.8973938000
ML02	-3	2	response2	910766940	910.7669603000
ML02	-3	0	practice_trial_end	911057870	911.0579385000
ML02	-4	0	practice_trial_start	917744713	917.7447366000
ML02	-4	0	fixation_on	917744894	917.7449066000
ML02	-4	0	fixation_acquired	918017810	918.0178299000
ML02	-4	1	stim1_on	918042201	918.0422227000
ML02	-4	1	stim1_off	918633341	918.6333600000
ML02	-4	1	response1	920129318	920.1293312000
ML02	-4	2	stim2_on	920369803	920.3698248000
ML02	-4	2	stim2_off	921174898	921.1749319000
ML02	-4	2	response2	946528738	946.5287812000
ML02	-4	0	practice_trial_end	946748015	946.7480363000
ML02	-5	0	practice_trial_start	952389277	952.3893008000
ML02	-5	0	fixation_on	952389943	952.3899561000
ML02	-5	0	fixation_acquired	952684179	952.6841947000
ML02	-5	1	stim1_on	952710670	952.7106929000
ML02	-5	1	stim1_off	953221139	953.2211573000
ML02	-5	1	response1	954302560	954.3025757000
ML02	-5	2	stim2_on	954580824	954.5808453000
ML02	-5	2	stim2_off	955398823	955.3988426000
ML02	-5	2	response2	956015334	956.0153481000
ML02	-5	0	practice_trial_end	956262326	956.2623490000
ML02	-6	0	practice_trial_start	959073789	959.0738194000
ML02	-6	0	fixation_on	959073858	959.0738671000
ML02	-6	0	fixation_acquired	959379203	959.3792194000
ML02	-6	1	stim1_on	959398332	959.3983504000
ML02	-6	1	stim1_off	959973485	959.9735429000
ML02	-6	1	response1	961038408	961.0384230000
ML02	-6	2	stim2_on	961363661	961.3636832000
ML02	-6	2	stim2_off	962089433	962.0894556000
ML02	-6	2	response2	962705292	962.7053048000
ML02	-6	0	practice_trial_end	962955174	962.9551934000
ML02	-7	0	practice_trial_start	966691945	966.6919723000
ML02	-7	0	fixation_on	966692009	966.6920181000
ML02	-7	0	fixation_acquired	966979230	966.9792446000
ML02	-7	1	stim1_on	967006145	967.0061675000
ML02	-7	1	stim1_off	967539651	967.5396682000
ML02	-7	1	response1	968040177	968.0401926000
ML02	-7	2	stim2_on	968272736	968.2727565000
ML02	-7	2	stim2_off	968972781	968.9727987000
ML02	-7	2	response2	969470756	969.4707690000
ML02	-7	0	practice_trial_end	969647596	969.6476187000
ML02	-8	0	practice_trial_start	970563911	970.5639368000
ML02	-8	0	fixation_on	970563979	970.5639880000
ML02	-8	0	fixation_acquired	970851797	970.8518120000
ML02	-8	1	stim1_on	970876372	970.8763907000
ML02	-8	1	stim1_off	971389347	971.3893652000
ML02	-8	1	response1	972147170	972.1471820000
ML02	-8	2	stim2_on	972427097	972.4271160000
ML02	-8	2	stim2_off	973055930	973.0559486000
ML02	-8	2	response2	973563295	973.5633084000
ML02	-8	0	practice_trial_end	973685907	973.6859308000
ML02	-9	0	practice_trial_start	976899978	976.9000040000
ML02	-9	0	fixation_on	976900040	976.9000485000
ML02	-9	0	fixation_acquired	977183294	977.1833111000
ML02	-9	1	stim1_on	977208937	977.2089573000
ML02	-9	1	stim1_off	977693253	977.6932708000
ML02	-9	1	response1	978609921	978.6099527000
ML02	-9	2	stim2_on	978831009	978.8310274000
ML02	-9	2	stim2_off	979616602	979.6166184000
ML02	-9	2	response2	980110074	980.1100863000
ML02	-9	0	practice_trial_end	980312981	980.3130014000
ML02	-10	0	practice_trial_start	982500307	982.5003342000
ML02	-10	0	fixation_on	982500375	982.5003846000
ML02	-10	0	fixation_acquired	983038763	983.0387793000
ML02	-10	1	stim1_on	983054400	983.0544184000
ML02	-10	1	stim1_off	983554383	983.5544093000
ML02	-10	1	response1	984174630	984.1746434000
ML02	-10	2	stim2_on	984414352	984.4143731000
ML02	-10	2	stim2_off	985151018	985.1510363000
ML02	-10	2	response2	986833568	986.8335817000
ML02	-10	0	practice_trial_end	987037650	987.0376907000
ML02	0	0	block_start	1011125343	1011.1253717000
ML02	1	0	trial_start	1011126898	1011.1269164000
ML02	1	0	fixation_on	1011126945	1011.1269533000
ML02	1	0	fixation_acquired	1011429317	1011.4293332000
ML02	1	1	stim1_on	1011452497	1011.4525191000
ML02	1	1	stim1_off	1011928065	1011.9280834000
ML02	1	1	response1	1013166733	1013.1667779000
ML02	1	2	stim2_on	1013414625	1013.4146450000
ML02	1	2	stim2_off	1014232111	1014.2321262000
ML02	1	2	response2	1014910419	1014.9104306000
ML02	1	0	trial_end	1015148455	1015.1485338000
ML02	2	0	trial_start	1016257668	1016.2576970000
ML02	2	0	fixation_on	1016257737	1016.2577459000
ML02	2	0	fixation_acquired	1016543531	1016.5435539000
ML02	2	1	stim1_on	1016567132	1016.5671495000
ML02	2	1	stim1_off	1017179464	1017.1794798000
ML02	2	1	response1	1017838374	1017.8383875000
ML02	2	2	stim2_on	1018099607	1018.0996275000
ML02	2	2	stim2_off	1018808209	1018.8082245000
ML02	2	2	response2	1019346517	1019.3465286000
ML02	2	0	trial_end	1019559056	1019.5590788000
ML02	3	0	trial_start	1020656842	1020.6568735000
ML02	3	0	fixation_on	1020656920	1020.6569294000
ML02	3	0	fixation_acquired	1020969636	1020.9696598000
ML02	3	1	stim1_on	1020991762	1020.9917797000
ML02	3	1	stim1_off	1021563418	1021.5634337000
ML02	3	1	response1	1022082489	1022.0825060000
ML02	3	2	stim2_on	1022347381	1022.3474035000
ML02	3	2	stim2_off	1022978350	1022.9783660000
ML02	3	2	response2	1023886287	1023.8863160000
ML02	3	0	trial_end	1024105347	1024.1053684000
ML02	4	0	trial_start	1025202417	1025.2024704000
ML02	4	0	fixation_on	1025202531	1025.2025534000
ML02	4	0	fixation_acquired	1025503220	1025.5032421000
ML02	4	1	stim1_on	1025528566	1025.5285851000
ML02	4	1	stim1_off	1026014718	1026.0147359000
ML02	4	1	response1	1026962211	1026.9622233000
ML02	4	2	stim2_on	1027168895	1027.1689305000
ML02	4	2	stim2_off	1027892131	1027.8921512000
ML02	4	2	response2	1028770312	1028.7703247000
ML02	4	0	trial_end	1028984771	1028.9848109000
ML02	5	0	trial_start	1030075511	1030.0755394000
ML02	5	0	fixation_on	1030075584	1030.0755919000
ML02	5	0	fixation_acquired	1030377714	1030.3777357000
ML02	5	1	stim1_on	1030399378	1030.3993984000
ML02	5	1	stim1_off	1030916429	1030.9164483000
ML02	5	1	response1	1031585167	1031.5851805000
ML02	5	2	stim2_on	1031825937	1031.8260016000
ML02	5	2	stim2_off	1032599051	1032.5990718000
ML02	5	2	response2	1034049092	1034.0491048000
ML02	5	0	trial_end	1034250606	1034.2506282000
ML02	6	0	trial_start	1035346429	1035.3464584000
ML02	6	0	fixation_on	1035346504	1035.3465132000
ML02	6	0	fixation_acquired	1035630952	1035.6309716000
ML02	6	1	stim1_on	1035670630	1035.6706503000
ML02	6	1	stim1_off	1036277795	1036.2778323000
ML02	6	1	response1	1036879306	1036.8793185000
ML02	6	2	stim2_on	1037141483	1037.1415017000
ML02	6	2	stim2_off	1037798918	1037.7989335000
ML02	6	2	response2	1038864834	1038.8648576000
ML02	6	0	trial_end	1039106310	1039.1063933000
ML02	7	0	trial_start	1040215717	1040.2157429000
ML02	7	0	fixation_on	1040215782	1040.2157907000
ML02	7	0	fixation_acquired	1040501765	1040.5017787000
ML02	7	1	stim1_on	1040526490	1040.5265063000
ML02	7	1	stim1_off	1041102846	1041.1028667000
ML02	7	1	response1	1041711620	1041.7116338000
ML02	7	2	stim2_on	1041973973	1041.9739939000
ML02	7	2	stim2_off	1042686643	1042.6866580000
ML02	7	2	response2	1043267208	1043.2672203000
ML02	7	0	trial_end	1043508684	1043.5087341000
ML02	8	0	trial_start	1044601597	1044.6016319000
ML02	8	0	fixation_on	1044601709	1044.6017189000
ML02	8	0	fixation_acquired	1044883586	1044.8836044000
ML02	8	1	stim1_on	1044921244	1044.9212626000
ML02	8	1	stim1_off	1045346042	1045.3460591000
ML02	8	1	response1	1046127422	1046.1274408000
ML02	8	2	stim2_on	1046435874	1046.4358930000
ML02	8	2	stim2_off	1047126851	1047.1268666000
ML02	8	2	response2	1047810032	1047.8100508000
ML02	8	0	trial_end	1048042869	1048.0429519000
ML02	9	0	trial_start	1049127352	1049.1273792000
ML02	9	0	fixation_on	1049127421	1049.1274291000
ML02	9	0	fixation_acquired	1049426185	1049.4262341000
ML02	9	1	stim1_on	1049464615	1049.4646327000
ML02	9	1	stim1_off	1050073224	1050.0732400000
ML02	9	1	response1	1050625440	1050.6254532000
ML02	9	2	stim2_on	1050906843	1050.9068636000
ML02	9	2	stim2_off	1051741828	1051.7418466000
ML02	9	2	response2	1052288364	1052.2883771000
ML02	9	0	trial_end	1052518340	1052.5183875000
ML02	10	0	trial_start	1053623521	1053.6235582000
ML02	10	0	fixation_on	1053623620	1053.6236284000
ML02	10	0	fixation_acquired	1053912530	1053.9125804000
ML02	10	1	stim1_on	1053940316	1053.9403352000
ML02	10	1	stim1_off	1054383915	1054.3839334000
ML02	10	1	response1	1058000015	1058.0000272000
ML02	10	2	stim2_on	1058278986	1058.2790070000
ML02	10	2	stim2_off	1059111079	1059.1110944000
ML02	10	2	response2	1061151180	1061.1511977000
ML02	10	0	trial_end	1061374591	1061.3746755000
ML02	10	0	block_feedback	1079278124	1079.2781489000
ML02	11	0	trial_start	1081259308	1081.2593407000
ML02	11	0	fixation_on	1081259394	1081.2594028000
ML02	11	0	fixation_acquired	1081546588	1081.5466018000
ML02	11	1	stim1_on	1081570920	1081.5709405000
ML02	11	1	stim1_off	1082185021	1082.1850378000
ML02	11	1	response1	1083298829	1083.2988484000
ML02	11	2	stim2_on	1083543101	1083.5431216000
ML02	11	2	stim2_off	1084353162	1084.3531806000
ML02	11	2	response2	1085358089	1085.3581182000
ML02	11	0	trial_end	1085558830	1085.5588502000
ML02	12	0	trial_start	1086652574	1086.6526040000
ML02	12	0	fixation_on	1086652674	1086.6526829000
ML02	12	0	fixation_acquired	1086933654	1086.9337000000
ML02	12	1	stim1_on	1086955381	1086.9554229000
ML02	12	1	stim1_off	1087382962	1087.3829803000
ML02	12	1	response1	1088445829	1088.4458460000
ML02	12	2	stim2_on	1088707582	1088.7076019000
ML02	12	2	stim2_off	1089414504	1089.4145207000
ML02	12	2	response2	1090418227	1090.4182507000
ML02	12	0	trial_end	1090642636	1090.6427146000
ML02	13	0	trial_start	1091763973	1091.7640009000
ML02	13	0	fixation_on	1091764051	1091.7640593000
ML02	13	0	fixation_acquired	1092060996	1092.0610118000
ML02	13	1	stim1_on	1092094514	1092.0945325000
ML02	13	1	stim1_off	1092716739	1092.7167562000
ML02	13	1	response1	1094226490	1094.2265229000
ML02	13	2	stim2_on	1094495705	1094.4957249000
ML02	13	2	stim2_off	1095269956	1095.2699728000
ML02	13	2	response2	1096334126	1096.3341429000
ML02	13	0	trial_end	1096569952	1096.5699733000
ML02	14	0	trial_start	1097667962	1097.6679952000
ML02	14	0	fixation_on	1097668052	1097.6680610000
ML02	14	0	fixation_acquired	1097985147	1097.9851806000
ML02	14	1	stim1_on	1098009032	1098.0090508000
ML02	14	1	stim1_off	1098457114	1098.4571297000
ML02	14	1	response1	1099904223	1099.9042364000
ML02	14	2	stim2_on	1100130522	1100.1305403000
ML02	14	2	stim2_off	1100915456	1100.9154764000
ML02	14	2	response2	1102079172	1102.0791892000
ML02	14	0	trial_end	1102299425	1102.2994447000
ML02	15	0	trial_start	1103396143	1103.3961744000
ML02	15	0	fixation_on	1103396231	1103.3962396000
ML02	15	0	fixation_acquired	1103683546	1103.6835657000
ML02	15	1	stim1_on	1103716766	1103.7168044000
ML02	15	1	stim1_off	1104342829	1104.3428480000
ML02	15	1	response1	1105200721	1105.2007400000
ML02	15	2	stim2_on	1105460523	1105.4605425000
ML02	15	2	stim2_off	1106259451	1106.2594669000
ML02	15	2	response2	1107377763	1107.3777804000
ML02	15	0	trial_end	1107576953	1107.5769733000
ML02	16	0	trial_start	1108676753	1108.6767807000
ML02	16	0	fixation_on	1108676831	1108.6768392000
ML02	16	0	fixation_acquired	1108966564	1108.9665981000
ML02	16	1	stim1_on	1108999816	1108.9998337000
ML02	16	1	stim1_off	1109459877	1109.4598928000
ML02	16	1	response1	1111377334	1111.3773783000
ML02	16	2	stim2_on	1111624351	1111.6243712000
ML02	16	2	stim2_off	1112283338	1112.2833542000
ML02	16	2	response2	1113425191	1113.4252049000
ML02	16	0	trial_end	1113623226	1113.6232539000
ML02	17	0	trial_start	1114729904	1114.7299366000
ML02	17	0	fixation_on	1114729995	1114.7300044000
ML02	17	0	fixation_acquired	1115026913	1115.0269468000
ML02	17	1	stim1_on	1115061425	1115.0614436000
ML02	17	1	stim1_off	1115565539	1115.5655555000
ML02	17	1	response1	1117343954	1117.3439751000
ML02	17	2	stim2_on	1117602329	1117.6023503000
ML02	17	2	stim2_off	1118301629	1118.3016461000
ML02	17	2	response2	1119232496	1119.2325117000
ML02	17	0	trial_end	1119451375	1119.4514140000
ML02	18	0	trial_start	1120565165	1120.5651954000
ML02	18	0	fixation_on	1120565251	1120.5652597000
ML02	18	0	fixation_acquired	1120864883	1120.8649464000
ML02	18	1	stim1_on	1120898748	1120.8987682000
ML02	18	1	stim1_off	1121515615	1121.5156312000
ML02	18	1	response1	1122416834	1122.4168471000
ML02	18	2	stim2_on	1122677202	1122.6772217000
ML02	18	2	stim2_off	1123487513	1123.4875300000
ML02	18	2	response2	1124514393	1124.5144158000
ML02	18	0	trial_end	1124710967	1124.7109865000
ML02	19	0	trial_start	1125811276	1125.8113143000
ML02	19	0	fixation_on	1125811376	1125.8113847000
ML02	19	0	fixation_acquired	1126118527	1126.1185722000
ML02	19	1	stim1_on	1126145390	1126.1454088000
ML02	19	1	stim1_off	1126664250	1126.6642676000
ML02	19	1	response1	1127232905	1127.2329181000
ML02	19	2	stim2_on	1127480777	1127.4807971000
ML02	19	2	stim2_off	1128235985	1128.2360038000
ML02	19	2	response2	1128896218	1128.8962410000
ML02	19	0	trial_end	1129120601	1129.1206209000
ML02	20	0	trial_start	1130233949	1130.2339765000
ML02	20	0	fixation_on	1130234034	1130.2340444000
ML02	20	0	fixation_acquired	1130531076	1130.5310933000
ML02	20	1	stim1_on	1130554441	1130.5544592000
ML02	20	1	stim1_off	1131159453	1131.1594703000
ML02	20	1	response1	1131664893	1131.6649056000
ML02	20	2	stim2_on	1131915351	1131.9153715000
ML02	20	2	stim2_off	1132708312	1132.7083285000
ML02	20	2	response2	1133679237	1133.6792600000
ML02	20	0	trial_end	1133888860	1133.8889446000
ML02	20	0	block_feedback	1177469821	1177.4698561000
ML02	21	0	trial_start	1180773341	1180.7733741000
ML02	21	0	fixation_on	1180773438	1180.7734476000
ML02	21	0	fixation_acquired	1181076689	1181.0767260000
ML02	21	1	stim1_on	1181111435	1181.1114551000
ML02	21	1	stim1_off	1181587295	1181.5873124000
ML02	21	1	response1	1182515996	1182.5160181000
ML02	21	2	stim2_on	1182757924	1182.7579435000
ML02	21	2	stim2_off	1183423363	1183.4233799000
ML02	21	2	response2	1184048409	1184.0484323000
ML02	21	0	trial_end	1184286552	1184.2865864000
ML02	22	0	trial_start	1185403998	1185.4040294000
ML02	22	0	fixation_on	1185404088	1185.4040972000
ML02	22	0	fixation_acquired	1185725028	1185.7250440000
ML02	22	1	stim1_on	1185757776	1185.7577943000
ML02	22	1	stim1_off	1186283856	1186.2838734000
ML02	22	1	response1	1187055912	1187.0559392000
ML02	22	2	stim2_on	1187300209	1187.3002263000
ML02	22	2	stim2_off	1188103660	1188.1036770000
ML02	22	2	response2	1189010420	1189.0104346000
ML02	22	0	trial_end	1189231023	1189.2311059000
ML02	23	0	trial_start	1190357226	1190.3572837000
ML02	23	0	fixation_on	1190357353	1190.3573616000
ML02	23	0	fixation_acquired	1190654135	1190.6541741000
ML02	23	1	stim1_on	1190679194	1190.6792105000
ML02	23	1	stim1_off	1191116998	1191.1170145000
ML02	23	1	response1	1192707853	1192.7078804000
ML02	23	2	stim2_on	1192955698	1192.9557193000
ML02	23	2	stim2_off	1193798618	1193.7986362000
ML02	23	2	response2	1194446831	1194.4468433000
ML02	23	0	trial_end	1194683654	1194.6837370000
ML02	24	0	trial_start	1195810731	1195.8107954000
ML02	24	0	fixation_on	1195810874	1195.8108842000
ML02	24	0	fixation_acquired	1196117187	1196.1172321000
ML02	24	1	stim1_on	1196157403	1196.1574206000
ML02	24	1	stim1_off	1196771120	1196.7711371000
ML02	24	1	response1	1198723568	1198.7235950000
ML02	24	2	stim2_on	1198999718	1198.9997395000
ML02	24	2	stim2_off	1199775457	1199.7754762000
ML02	24	2	response2	1200288357	1200.2883699000
ML02	24	0	trial_end	1200547477	1200.5474977000
ML02	25	0	trial_start	1201667065	1201.6671074000
ML02	25	0	fixation_on	1201667185	1201.6671936000
ML02	25	0	fixation_acquired	1201987695	1201.9877100000
ML02	25	1	stim1_on	1202018757	1202.0187747000
ML02	25	1	stim1_off	1202605376	1202.6053935000
ML02	25	1	response1	1204274455	1204.2744676000
ML02	25	2	stim2_on	1204518570	1204.5185899000
ML02	25	2	stim2_off	1205230974	1205.2309920000
ML02	25	2	response2	1205730624	1205.7306367000
ML02	25	0	trial_end	1205957310	1205.9573742000
ML02	26	0	trial_start	1207089890	1207.0899363000
ML02	26	0	fixation_on	1207090018	1207.0900273000
ML02	26	0	fixation_acquired	1207400174	1207.4002117000
ML02	26	1	stim1_on	1207425978	1207.4259973000
ML02	26	1	stim1_off	1207898580	1207.8985975000
ML02	26	1	response1	1209423623	1209.4236350000
ML02	26	2	stim2_on	1209650267	1209.6502855000
ML02	26	2	stim2_off	1210315294	1210.3153120000
ML02	26	2	response2	1212544625	1212.5446585000
ML02	26	0	trial_end	1212751070	1212.7511532000
ML02	27	0	trial_start	1213905723	1213.9057747000
ML02	27	0	fixation_on	1213905866	1213.9058763000
ML02	27	0	fixation_acquired	1214225643	1214.2256591000
ML02	27	1	stim1_on	1214246688	1214.2467045000
ML02	27	1	stim1_off	1214879578	1214.8795962000
ML02	27	1	response1	1215857018	1215.8570416000
ML02	27	2	stim2_on	1216156141	1216.1561622000
ML02	27	2	stim2_off	1216842664	1216.8426809000
ML02	27	2	response2	1217741642	1217.7416708000
ML02	27	0	trial_end	1217981528	1217.9815484000
ML02	28	0	trial_start	1219111323	1219.1113831000
ML02	28	0	fixation_on	1219111461	1219.1114698000
ML02	28	0	fixation_acquired	1219429847	1219.4298819000
ML02	28	1	stim1_on	1219455988	1219.4560086000
ML02	28	1	stim1_off	1220009567	1220.0095842000
ML02	28	1	response1	1221090272	1221.0902915000
ML02	28	2	stim2_on	1221341742	1221.3417640000
ML02	28	2	stim2_off	1221985451	1221.9854693000
ML02	28	2	response2	1222591553	1222.5915760000
ML02	28	0	trial_end	1222818229	1222.8182771000
ML02	29	0	trial_start	1223967974	1223.9680064000
ML02	29	0	fixation_on	1223968083	1223.9680918000
ML02	29	0	fixation_acquired	1224275548	1224.2755623000
ML02	29	1	stim1_on	1224308599	1224.3086181000
ML02	29	1	stim1_off	1224933626	1224.9336442000
ML02	29	1	response1	1225667823	1225.6678589000
ML02	29	2	stim2_on	1225934541	1225.9345767000
ML02	29	2	stim2_off	1226725567	1226.7256059000
ML02	29	2	response2	1227218598	1227.2186100000
ML02	29	0	trial_end	1227437168	1227.4372089000
ML02	30	0	trial_start	1228581263	1228.5812972000
ML02	30	0	fixation_on	1228581378	1228.5813884000
ML02	30	0	fixation_acquired	1228883025	1228.8830610000
ML02	30	1	stim1_on	1228916857	1228.9168766000
ML02	30	1	stim1_off	1229495376	1229.4953922000
ML02	30	1	response1	1230803523	1230.8035682000
ML02	30	2	stim2_on	1231033479	1231.0335007000
ML02	30	2	stim2_off	1231879299	1231.8793174000
ML02	30	2	response2	1232723292	1232.7233085000
ML02	30	0	trial_end	1232927901	1232.9279862000
ML02	30	0	block_feedback	1248029581	1248.0296054000
ML02	31	0	trial_start	1250211359	1250.2113939000
ML02	31	0	fixation_on	1250211479	1250.2114892000
ML02	31	0	fixation_acquired	1250521530	1250.5215448000
ML02	31	1	stim1_on	1250545358	1250.5453779000
ML02	31	1	stim1_off	1251012509	1251.0125277000
ML02	31	1	response1	1251999106	1251.9991346000
ML02	31	2	stim2_on	1252233448	1252.2334873000
ML02	31	2	stim2_off	1252974671	1252.9746893000
ML02	31	2	response2	1254270042	1254.2700797000
ML02	31	0	trial_end	1254498169	1254.4981885000
ML02	32	0	trial_start	1255629434	1255.6294661000
ML02	32	0	fixation_on	1255629580	1255.6295924000
ML02	32	0	fixation_acquired	1255950718	1255.9507551000
ML02	32	1	stim1_on	1255976749	1255.9767672000
ML02	32	1	stim1_off	1256524679	1256.5246959000
ML02	32	1	response1	1257233304	1257.2333385000
ML02	32	2	stim2_on	1257511897	1257.5119170000
ML02	32	2	stim2_off	1258179334	1258.1793519000
ML02	32	2	response2	1258913036	1258.9130523000
ML02	32	0	trial_end	1259131651	1259.1317349000
ML02	33	0	trial_start	1260294305	1260.2943391000
ML02	33	0	fixation_on	1260294424	1260.2944342000
ML02	33	0	fixation_acquired	1260615463	1260.6155003000
ML02	33	1	stim1_on	1260642311	1260.6423308000
ML02	33	1	stim1_off	1261094375	1261.0944087000
ML02	33	1	response1	1262014486	1262.0145060000
ML02	33	2	stim2_on	1262247063	1262.2470824000
ML02	33	2	stim2_off	1262959960	1262.9599779000
ML02	33	2	response2	1263452839	1263.4528525000
ML02	33	0	trial_end	1263600190	1263.6002545000
ML02	34	0	trial_start	1264742511	1264.7425420000
ML02	34	0	fixation_on	1264742620	1264.7426295000
ML02	34	0	fixation_acquired	1265063729	1265.0637658000
ML02	34	1	stim1_on	1265096354	1265.0963719000
ML02	34	1	stim1_off	1265678299	1265.6783178000
ML02	34	1	response1	1266817783	1266.8177954000
ML02	34	2	stim2_on	1267066195	1267.0662146000
ML02	34	2	stim2_off	1267916189	1267.9162090000
ML02	34	2	response2	1268865995	1268.8660178000
ML02	34	0	trial_end	1269070406	1269.0704882000
ML02	35	0	trial_start	1270213141	1270.2131719000
ML02	35	0	fixation_on	1270213250	1270.2132596000
ML02	35	0	fixation_acquired	1270530678	1270.5307125000
ML02	35	1	stim1_on	1270563425	1270.5634431000
ML02	35	1	stim1_off	1270999309	1270.9993267000
ML02	35	1	response1	1272078750	1272.0787633000
ML02	35	2	stim2_on	1272282656	1272.2826750000
ML02	35	2	stim2_off	1273032388	1273.0324059000
ML02	35	2	response2	1273693485	1273.6934978000
ML02	35	0	trial_end	1273886051	1273.8861348000
ML02	36	0	trial_start	1275049428	1275.0494604000
ML02	36	0	fixation_on	1275049542	1275.0495517000
ML02	36	0	fixation_acquired	1275346528	1275.3465782000
ML02	36	1	stim1_on	1275380011	1275.3800296000
ML02	36	1	stim1_off	1275981859	1275.9818759000
ML02	36	1	response1	1276783159	1276.7831711000
ML02	36	2	stim2_on	1277016316	1277.0163366000
ML02	36	2	stim2_off	1277752798	1277.7528176000
ML02	36	2	response2	1278559556	1278.5596016000
ML02	36	0	trial_end	1278747114	1278.7471350000
ML02	37	0	trial_start	1279885913	1279.8859428000
ML02	37	0	fixation_on	1279886023	1279.8860329000
ML02	37	0	fixation_acquired	1280188618	1280.1886689000
ML02	37	1	stim1_on	1280220260	1280.2202785000
ML02	37	1	stim1_off	1280791007	1280.7910263000
ML02	37	1	response1	1281805552	1281.8055672000
ML02	37	2	stim2_on	1282006098	1282.0061170000
ML02	37	2	stim2_off	1282679907	1282.6799244000
ML02	37	2	response2	1283357201	1283.3572155000
ML02	37	0	trial_end	1283583643	1283.5837486000
ML02	38	0	trial_start	1284743571	1284.7436035000
ML02	38	0	fixation_on	1284743691	1284.7437032000
ML02	38	0	fixation_acquired	1285064695	1285.0647300000
ML02	38	1	stim1_on	1285089508	1285.0895264000
ML02	38	1	stim1_off	1285725090	1285.7251078000
ML02	38	1	response1	1286385262	1286.3853045000
ML02	38	2	stim2_on	1286617165	1286.6171866000
ML02	38	2	stim2_off	1287297183	1287.2972022000
ML02	38	2	response2	1287902529	1287.9025619000
ML02	38	0	trial_end	1288119266	1288.1193056000
ML02	39	0	trial_start	1289276670	1289.2767014000
ML02	39	0	fixation_on	1289276789	1289.2767998000
ML02	39	0	fixation_acquired	1289588879	1289.5888955000
ML02	39	1	stim1_on	1289619940	1289.6199581000
ML02	39	1	stim1_off	1290117645	1290.1176642000
ML02	39	1	response1	1292863656	1292.8636683000
ML02	39	2	stim2_on	1293086289	1293.0863092000
ML02	39	2	stim2_off	1293816921	1293.8169384000
ML02	39	2	response2	1294496525	1294.4965525000
ML02	39	0	trial_end	1294717547	1294.7176306000
ML02	40	0	trial_start	1295879545	1295.8795816000
ML02	40	0	fixation_on	1295879684	1295.8796949000
ML02	40	0	fixation_acquired	1296186223	1296.1862725000
ML02	40	1	stim1_on	1296219315	1296.2193332000
ML02	40	1	stim1_off	1296802005	1296.8020234000
ML02	40	1	response1	1297439056	1297.4390712000
ML02	40	2	stim2_on	1297658806	1297.6588259000
ML02	40	2	stim2_off	1298395661	1298.3956792000
ML02	40	2	response2	1298993265	1298.9932787000
ML02	40	0	trial_end	1299213562	1299.2136016000
ML02	40	0	block_feedback	1309597646	1309.5976700000
ML02	41	0	trial_start	1311622202	1311.6222362000
ML02	41	0	fixation_on	1311622334	1311.6223446000
ML02	41	0	fixation_acquired	1311946650	1311.9466707000
ML02	41	1	stim1_on	1311967545	1311.9675667000
ML02	41	1	stim1_off	1312524154	1312.5241723000
ML02	41	1	response1	1313683224	1313.6832362000
ML02	41	2	stim2_on	1313893954	1313.8939748000
ML02	41	2	stim2_off	1314657414	1314.6574319000
ML02	41	2	response2	1315232003	1315.2320155000
ML02	41	0	trial_end	1315435569	1315.4356190000
ML02	42	0	trial_start	1316604087	1316.6041423000
ML02	42	0	fixation_on	1316604256	1316.6042665000
ML02	42	0	fixation_acquired	1316926464	1316.9265040000
ML02	42	1	stim1_on	1316953596	1316.9536157000
ML02	42	1	stim1_off	1317476812	1317.4768309000
ML02	42	1	response1	1318525314	1318.5253282000
ML02	42	2	stim2_on	1318728703	1318.7287239000
ML02	42	2	stim2_off	1319501433	1319.5014515000
ML02	42	2	response2	1320016629	1320.0166416000
ML02	42	0	trial_end	1320223110	1320.2231935000
ML02	43	0	trial_start	1321379491	1321.3795264000
ML02	43	0	fixation_on	1321379628	1321.3796394000
ML02	43	0	fixation_acquired	1321689024	1321.6890617000
ML02	43	1	stim1_on	1321716018	1321.7160356000
ML02	43	1	stim1_off	1322322303	1322.3223230000
ML02	43	1	response1	1322990170	1322.9901926000
ML02	43	2	stim2_on	1323212805	1323.2128250000
ML02	43	2	stim2_off	1324068934	1324.0689521000
ML02	43	2	response2	1325104707	1325.1047356000
ML02	43	0	trial_end	1325274134	1325.2742182000
ML02	44	0	trial_start	1326421990	1326.4220220000
ML02	44	0	fixation_on	1326422113	1326.4221234000
ML02	44	0	fixation_acquired	1326736338	1326.7363732000
ML02	44	1	stim1_on	1326770251	1326.7702713000
ML02	44	1	stim1_off	1327302632	1327.3026511000
ML02	44	1	response1	1328221966	1328.2219936000
ML02	44	2	stim2_on	1328455475	1328.4554955000
ML02	44	2	stim2_off	1329111317	1329.1113353000
ML02	44	2	response2	1330222811	1330.2228449000
ML02	44	0	trial_end	1330413715	1330.4137986000
ML02	45	0	trial_start	1331575240	1331.5752746000
ML02	45	0	fixation_on	1331575366	1331.5753771000
ML02	45	0	fixation_acquired	1331881688	1331.8817396000
ML02	45	1	stim1_on	1331914967	1331.9149856000
ML02	45	1	stim1_off	1332552229	1332.5522681000
ML02	45	1	response1	1333343819	1333.3438340000
ML02	45	2	stim2_on	1333595368	1333.5953879000
ML02	45	2	stim2_off	1334457607	1334.4576271000
ML02	45	2	response2	1335231310	1335.2313443000
ML02	45	0	trial_end	1335459011	1335.4590935000
ML02	46	0	trial_start	1336640091	1336.6401237000
ML02	46	0	fixation_on	1336640223	1336.6402330000
ML02	46	0	fixation_acquired	1336963360	1336.9633996000
ML02	46	1	stim1_on	1336990726	1336.9907456000
ML02	46	1	stim1_off	1337580166	1337.5801842000
ML02	46	1	response1	1338897497	1338.8975098000
ML02	46	2	stim2_on	1339142671	1339.1427146000
ML02	46	2	stim2_off	1339837425	1339.8374438000
ML02	46	2	response2	1340957689	1340.9577236000
ML02	46	0	trial_end	1341160786	1341.1608290000
ML02	47	0	trial_start	1342328912	1342.3289439000
ML02	47	0	fixation_on	1342329041	1342.3290507000
ML02	47	0	fixation_acquired	1342655173	1342.6552093000
ML02	47	1	stim1_on	1342682129	1342.6821483000
ML02	47	1	stim1_off	1343325951	1343.3259687000
ML02	47	1	response1	1344047017	1344.0470401000
ML02	47	2	stim2_on	1344278549	1344.2785695000
ML02	47	2	stim2_off	1345054791	1345.0548102000
ML02	47	2	response2	1345646219	1345.6462311000
ML02	47	0	trial_end	1345866830	1345.8668498000
ML02	48	0	trial_start	1347038285	1347.0383167000
ML02	48	0	fixation_on	1347038409	1347.0384195000
ML02	48	0	fixation_acquired	1347362823	1347.3628976000
ML02	48	1	stim1_on	1347390288	1347.3903094000
ML02	48	1	stim1_off	1348003822	1348.0038407000
ML02	48	1	response1	1349021984	1349.0220013000
ML02	48	2	stim2_on	1349272975	1349.2729948000
ML02	48	2	stim2_off	1350026021	1350.0260398000
ML02	48	2	response2	1350640127	1350.6401546000
ML02	48	0	trial_end	1350860872	1350.8609567000
ML02	49	0	trial_start	1352034751	1352.0347866000
ML02	49	0	fixation_on	1352034880	1352.0348901000
ML02	49	0	fixation_acquired	1352358558	1352.3586082000
ML02	49	1	stim1_on	1352392487	1352.3925064000
ML02	49	1	stim1_off	1352860449	1352.8604687000
ML02	49	1	response1	1354061054	1354.0611019000
ML02	49	2	stim2_on	1354307651	1354.3076713000
ML02	49	2	stim2_off	1355011740	1355.0117585000
ML02	49	2	response2	1356144343	1356.1443761000
ML02	49	0	trial_end	1356335334	1356.3354150000
ML02	50	0	trial_start	1357516227	1357.5162583000
ML02	50	0	fixation_on	1357516355	1357.5163656000
ML02	50	0	fixation_acquired	1357846692	1357.8467269000
ML02	50	1	stim1_on	1357880437	1357.8804557000
ML02	50	1	stim1_off	1358344751	1358.3447688000
ML02	50	1	response1	1359262347	1359.2623601000
ML02	50	2	stim2_on	1359502917	1359.5029366000
ML02	50	2	stim2_off	1360283043	1360.2830616000
ML02	50	2	response2	1360798986	1360.7989989000
ML02	50	0	trial_end	1360992714	1360.9927779000
ML02	50	0	block_feedback	1366989185	1366.9892117000
ML02	50	0	break_start	1367665971	1367.6660065000
ML02	50	0	break_end	1369329584	1369.3296284000
ML02	51	0	trial_start	1369330031	1369.3300592000
ML02	51	0	fixation_on	1369330138	1369.3301531000
ML02	51	0	fixation_acquired	1369859068	1369.8591042000
ML02	51	1	stim1_on	1369884838	1369.8848586000
ML02	51	1	stim1_off	1370482263	1370.4822823000
ML02	51	1	response1	1371517566	1371.5176312000
ML02	51	2	stim2_on	1371701986	1371.7020070000
ML02	51	2	stim2_off	1372400652	1372.4006731000
ML02	51	2	response2	1373040668	1373.0407026000
ML02	51	0	trial_end	1373247940	1373.2480224000
ML02	52	0	trial_start	1374432808	1374.4328388000
ML02	52	0	fixation_on	1374432939	1374.4329513000
ML02	52	0	fixation_acquired	1374744573	1374.7446102000
ML02	52	1	stim1_on	1374776900	1374.7769185000
ML02	52	1	stim1_off	1375300880	1375.3008991000
ML02	52	1	response1	1375885013	1375.8850468000
ML02	52	2	stim2_on	1376126731	1376.1267785000
ML02	52	2	stim2_off	1376932737	1376.9328238000
ML02	52	2	response2	1377857107	1377.8571306000
ML02	52	0	trial_end	1378059320	1378.0594048000
ML02	53	0	trial_start	1379250002	1379.2500352000
ML02	53	0	fixation_on	1379250146	1379.2501570000
ML02	53	0	fixation_acquired	1379564835	1379.5648723000
ML02	53	1	stim1_on	1379597803	1379.5978199000
ML02	53	1	stim1_off	1380106493	1380.1065125000
ML02	53	1	response1	1381597132	1381.5971528000
ML02	53	2	stim2_on	1381834172	1381.8341920000
ML02	53	2	stim2_off	1382595901	1382.5959204000
ML02	53	2	response2	1383296618	1383.2966348000
ML02	53	0	trial_end	1383485217	1383.4852800000
ML02	54	0	trial_start	1384659691	1384.6597230000
ML02	54	0	fixation_on	1384659825	1384.6598360000
ML02	54	0	fixation_acquired	1384974085	1384.9741007000
ML02	54	1	stim1_on	1385008773	1385.0088143000
ML02	54	1	stim1_off	1385580782	1385.5808002000
ML02	54	1	response1	1386893958	1386.8939724000
ML02	54	2	stim2_on	1387112767	1387.1127872000
ML02	54	2	stim2_off	1387770924	1387.7709443000
ML02	54	2	response2	1388468773	1388.4688003000
ML02	54	0	trial_end	1388669393	1388.6694675000
ML02	55	0	trial_start	1389851588	1389.8516199000
ML02	55	0	fixation_on	1389851724	1389.8517343000
ML02	55	0	fixation_acquired	1390182502	1390.1825392000
ML02	55	1	stim1_on	1390215930	1390.2159503000
ML02	55	1	stim1_off	1390683540	1390.6835604000
ML02	55	1	response1	1391650947	1391.6509747000
ML02	55	2	stim2_on	1391867862	1391.8678814000
ML02	55	2	stim2_off	1392642726	1392.6427435000
ML02	55	2	response2	1393388784	1393.3887988000
ML02	55	0	trial_end	1393594605	1393.5946878000
ML02	56	0	trial_start	1394775007	1394.7750389000
ML02	56	0	fixation_on	1394775143	1394.7751530000
ML02	56	0	fixation_acquired	1395082828	1395.0828435000
ML02	56	1	stim1_on	1395116885	1395.1169057000
ML02	56	1	stim1_off	1395650893	1395.6509138000
ML02	56	1	response1	1396945536	1396.9455562000
ML02	56	2	stim2_on	1397199030	1397.1990509000
ML02	56	2	stim2_off	1397923477	1397.9234954000
ML02	56	2	response2	1398754357	1398.7543764000
ML02	56	0	trial_end	1398959499	1398.9595833000
ML02	57	0	trial_start	1400169953	1400.1699841000
ML02	57	0	fixation_on	1400170101	1400.1701128000
ML02	57	0	fixation_acquired	1400480276	1400.4803129000
ML02	57	1	stim1_on	1400514530	1400.5145485000
ML02	57	1	stim1_off	1401076185	1401.0762035000
ML02	57	1	response1	1401952457	1401.9524822000
ML02	57	2	stim2_on	1402223412	1402.2234319000
ML02	57	2	stim2_off	1403068827	1403.0688468000
ML02	57	2	response2	1403582314	1403.5823266000
ML02	57	0	trial_end	1403795786	1403.7958095000
ML02	58	0	trial_start	1404983091	1404.9831217000
ML02	58	0	fixation_on	1404983241	1404.9832540000
ML02	58	0	fixation_acquired	1405309612	1405.3096330000
ML02	58	1	stim1_on	1405338683	1405.3387013000
ML02	58	1	stim1_off	1405953368	1405.9533871000
ML02	58	1	response1	1406574995	1406.5750099000
ML02	58	2	stim2_on	1406826130	1406.8261495000
ML02	58	2	stim2_off	1407500468	1407.5004876000
ML02	58	2	response2	1408654424	1408.6544369000
ML02	58	0	trial_end	1408842854	1408.8429399000
ML02	59	0	trial_start	1410046739	1410.0467719000
ML02	59	0	fixation_on	1410046896	1410.0469061000
ML02	59	0	fixation_acquired	1410387893	1410.3879309000
ML02	59	1	stim1_on	1410414315	1410.4143330000
ML02	59	1	stim1_off	1410881536	1410.8815560000
ML02	59	1	response1	1411921282	1411.9213090000
ML02	59	2	stim2_on	1412178445	1412.1784668000
ML02	59	2	stim2_off	1412972086	1412.9721044000
ML02	59	2	response2	1413598077	1413.5981108000
ML02	59	0	trial_end	1413816716	1413.8167365000
ML02	60	0	trial_start	1415015635	1415.0156674000
ML02	60	0	fixation_on	1415015779	1415.0157909000
ML02	60	0	fixation_acquired	1415322132	1415.3221812000
ML02	60	1	stim1_on	1415355904	1415.3559238000
ML02	60	1	stim1_off	1415817889	1415.8179079000
ML02	60	1	response1	1416834365	1416.8343908000
ML02	60	2	stim2_on	1417060034	1417.0600539000
ML02	60	2	stim2_off	1417788722	1417.7887413000
ML02	60	2	response2	1418562072	1418.5620841000
ML02	60	0	trial_end	1418733579	1418.7336614000
ML02	60	0	block_feedback	1421308821	1421.3088462000
ML02	61	0	trial_start	1422928482	1422.9285163000
ML02	61	0	fixation_on	1422928644	1422.9286531000
ML02	61	0	fixation_acquired	1423268238	1423.2682535000
ML02	61	1	stim1_on	1423299984	1423.3000051000
ML02	61	1	stim1_off	1423865307	1423.8653273000
ML02	61	1	response1	1424493533	1424.4935673000
ML02	61	2	stim2_on	1424739263	1424.7392827000
ML02	61	2	stim2_off	1425487704	1425.4877227000
ML02	61	2	response2	1426017388	1426.0174020000
ML02	61	0	trial_end	1426223063	1426.2230831000
ML02	62	0	trial_start	1427418851	1427.4188854000
ML02	62	0	fixation_on	1427419014	1427.4190250000
ML02	62	0	fixation_acquired	1427729178	1427.7291929000
ML02	62	1	stim1_on	1427752719	1427.7527364000
ML02	62	1	stim1_off	1428278193	1428.2782114000
ML02	62	1	response1	1428927401	1428.9274274000
ML02	62	2	stim2_on	1429129399	1429.1294186000
ML02	62	2	stim2_off	1429916105	1429.9161249000
ML02	62	2	response2	1430447463	1430.4474759000
ML02	62	0	trial_end	1430683782	1430.6838067000
ML02	63	0	trial_start	1431886228	1431.8863056000
ML02	63	0	fixation_on	1431886556	1431.8865750000
ML02	63	0	fixation_acquired	1432196326	1432.1963617000
ML02	63	1	stim1_on	1432228750	1432.2287682000
ML02	63	1	stim1_off	1432851854	1432.8518778000
ML02	63	1	response1	1434672146	1434.6721742000
ML02	63	2	stim2_on	1434926152	1434.9262369000
ML02	63	2	stim2_off	1435622061	1435.6220805000
ML02	63	2	response2	1436865780	1436.8658074000
ML02	63	0	trial_end	1437068470	1437.0685366000
ML02	64	0	trial_start	1438284350	1438.2843843000
ML02	64	0	fixation_on	1438284512	1438.2845224000
ML02	64	0	fixation_acquired	1438599306	1438.5993537000
ML02	64	1	stim1_on	1438632836	1438.6328546000
ML02	64	1	stim1_off	1439121069	1439.1210878000
ML02	64	1	response1	1439693399	1439.6934107000
ML02	64	2	stim2_on	1439935570	1439.9355898000
ML02	64	2	stim2_off	1440775744	1440.7757637000
ML02	64	2	response2	1441295675	1441.2956875000
ML02	64	0	trial_end	1441529283	1441.5293680000
ML02	65	0	trial_start	1442755381	1442.7554195000
ML02	65	0	fixation_on	1442755548	1442.7555584000
ML02	65	0	fixation_acquired	1443083989	1443.0840252000
ML02	65	1	stim1_on	1443115753	1443.1157719000
ML02	65	1	stim1_off	1443681632	1443.6816513000
ML02	65	1	response1	1444509568	1444.5095946000
ML02	65	2	stim2_on	1444739819	1444.7398382000
ML02	65	2	stim2_off	1445573553	1445.5735719000
ML02	65	2	response2	1446274358	1446.2743924000
ML02	65	0	trial_end	1446481114	1446.4811781000
ML02	66	0	trial_start	1447695313	1447.6953458000
ML02	66	0	fixation_on	1447695461	1447.6954702000
ML02	66	0	fixation_acquired	1448021121	1448.0211587000
ML02	66	1	stim1_on	1448053401	1448.0534208000
ML02	66	1	stim1_off	1448519125	1448.5191441000
ML02	66	1	response1	1449106702	1449.1067367000
ML02	66	2	stim2_on	1449302581	1449.3026009000
ML02	66	2	stim2_off	1450036098	1450.0361178000
ML02	66	2	response2	1450530233	1450.5302475000
ML02	66	0	trial_end	1450761088	1450.7611071000
ML02	67	0	trial_start	1451972429	1451.9724599000
ML02	67	0	fixation_on	1451972575	1451.9725852000
ML02	67	0	fixation_acquired	1452297159	1452.2971926000
ML02	67	1	stim1_on	1452334829	1452.3348680000
ML02	67	1	stim1_off	1452988035	1452.9880551000
ML02	67	1	response1	1453534926	1453.5349399000
ML02	67	2	stim2_on	1453807675	1453.8076952000
ML02	67	2	stim2_off	1454629053	1454.6290721000
ML02	67	2	response2	1455213578	1455.2136124000
ML02	67	0	trial_end	1455432916	1455.4329493000
ML02	68	0	trial_start	1456645985	1456.6460181000
ML02	68	0	fixation_on	1456646157	1456.6461684000
ML02	68	0	fixation_acquired	1456970531	1456.9705654000
ML02	68	1	stim1_on	1457003873	1457.0038923000
ML02	68	1	stim1_off	1457466849	1457.4668692000
ML02	68	1	response1	1458385156	1458.3851712000
ML02	68	2	stim2_on	1458638943	1458.6389620000
ML02	68	2	stim2_off	1459454393	1459.4544117000
ML02	68	2	response2	1461183535	1461.1835622000
ML02	68	0	trial_end	1461376408	1461.3764707000
ML02	69	0	trial_start	1462603837	1462.6038710000
ML02	69	0	fixation_on	1462604020	1462.6040348000
ML02	69	0	fixation_acquired	1462946144	1462.9461817000
ML02	69	1	stim1_on	1462973914	1462.9739322000
ML02	69	1	stim1_off	1463428218	1463.4282387000
ML02	69	1	response1	1463983057	1463.9830695000
ML02	69	2	stim2_on	1464225664	1464.2256846000
ML02	69	2	stim2_off	1464979757	1464.9797844000
ML02	69	2	response2	1465857361	1465.8573960000
ML02	69	0	trial_end	1466042809	1466.0428944000
ML02	70	0	trial_start	1467249709	1467.2497577000
ML02	70	0	fixation_on	1467250014	1467.2500240000
ML02	70	0	fixation_acquired	1467581680	1467.5817163000
ML02	70	1	stim1_on	1467615983	1467.6160024000
ML02	70	1	stim1_off	1468113165	1468.1131858000
ML02	70	1	response1	1468640597	1468.6406097000
ML02	70	2	stim2_on	1468877145	1468.8771655000
ML02	70	2	stim2_off	1469602441	1469.6024596000
ML02	70	2	response2	1470254706	1470.2547324000
ML02	70	0	trial_end	1470462974	1470.4630562000
ML02	70	0	block_feedback	1477500615	1477.5006389000
ML02	71	0	trial_start	1479600884	1479.6009182000
ML02	71	0	fixation_on	1479601057	1479.6010668000
ML02	71	0	fixation_acquired	1479951446	1479.9514951000
ML02	71	1	stim1_on	1479984917	1479.9849372000
ML02	71	1	stim1_off	1480628827	1480.6288469000
ML02	71	1	response1	1481856531	1481.8565584000
ML02	71	2	stim2_on	1482081768	1482.0817883000
ML02	71	2	stim2_off	1482804386	1482.8044063000
ML02	71	2	response2	1483374857	1483.3748705000
ML02	71	0	trial_end	1483582296	1483.5823582000
ML02	72	0	trial_start	1484813465	1484.8134946000
ML02	72	0	fixation_on	1484813610	1484.8136219000
ML02	72	0	fixation_acquired	1485153189	1485.1532388000
ML02	72	1	stim1_on	1485188699	1485.1887190000
ML02	72	1	stim1_off	1485831344	1485.8313638000
ML02	72	1	response1	1486512563	1486.5125747000
ML02	72	2	stim2_on	1486747530	1486.7475510000
ML02	72	2	stim2_off	1487475892	1487.4759119000
ML02	72	2	response2	1488015811	1488.0158237000
ML02	72	0	trial_end	1488245751	1488.2457999000
ML02	73	0	trial_start	1489481890	1489.4819217000
ML02	73	0	fixation_on	1489482065	1489.4820756000
ML02	73	0	fixation_acquired	1489822889	1489.8229060000
ML02	73	1	stim1_on	1489854989	1489.8550100000
ML02	73	1	stim1_off	1490439158	1490.4391804000
ML02	73	1	response1	1490945564	1490.9455792000
ML02	73	2	stim2_on	1491146524	1491.1465418000
ML02	73	2	stim2_off	1492009980	1492.0099994000
ML02	73	2	response2	1492488414	1492.4884756000
ML02	73	0	trial_end	1492692750	1492.6928739000
ML02	74	0	trial_start	1493924272	1493.9243351000
ML02	74	0	fixation_on	1493924466	1493.9244777000
ML02	74	0	fixation_acquired	1494252213	1494.2522299000
ML02	74	1	stim1_on	1494271008	1494.2710239000
ML02	74	1	stim1_off	1494893001	1494.8930207000
ML02	74	1	response1	1496307331	1496.3073491000
ML02	74	2	stim2_on	1496521872	1496.5218935000
ML02	74	2	stim2_off	1497333785	1497.3338053000
ML02	74	2	response2	1497949814	1497.9498480000
ML02	74	0	trial_end	1498149831	1498.1498517000
ML02	75	0	trial_start	1499376230	1499.3762615000
ML02	75	0	fixation_on	1499376462	1499.3764741000
ML02	75	0	fixation_acquired	1499710072	1499.7101080000
ML02	75	1	stim1_on	1499740361	1499.7403794000
ML02	75	1	stim1_off	1500396237	1500.3962554000
ML02	75	1	response1	1500959886	1500.9598993000
ML02	75	2	stim2_on	1501182274	1501.1822942000
ML02	75	2	stim2_off	1501887038	1501.8870577000
ML02	75	2	response2	1502379381	1502.3793956000
ML02	75	0	trial_end	1502570525	1502.5705733000
ML02	76	0	trial_start	1503804738	1503.8047757000
ML02	76	0	fixation_on	1503804901	1503.8049105000
ML02	76	0	fixation_acquired	1504133343	1504.1333665000
ML02	76	1	stim1_on	1504155228	1504.1552453000
ML02	76	1	stim1_off	1504818881	1504.8188997000
ML02	76	1	response1	1505439876	1505.4399035000
ML02	76	2	stim2_on	1505690782	1505.6908043000
ML02	76	2	stim2_off	1506517312	1506.5173314000
ML02	76	2	response2	1507133256	1507.1332683000
ML02	76	0	trial_end	1507320998	1507.3210625000
ML02	77	0	trial_start	1508562906	1508.5629376000
ML02	77	0	fixation_on	1508563064	1508.5630743000
ML02	77	0	fixation_acquired	1508904023	1508.9040728000
ML02	77	1	stim1_on	1508936593	1508.9366118000
ML02	77	1	stim1_off	1509483478	1509.4834967000
ML02	77	1	response1	1509992516	1509.9925302000
ML02	77	2	stim2_on	1510191200	1510.1912199000
ML02	77	2	stim2_off	1510995838	1510.9958563000
ML02	77	2	response2	1511480682	1511.4806961000
ML02	77	0	trial_end	1511633183	1511.6332410000
ML02	78	0	trial_start	1512858916	1512.8589478000
ML02	78	0	fixation_on	1512859076	1512.8590868000
ML02	78	0	fixation_acquired	1513197082	1513.1971009000
ML02	78	1	stim1_on	1513221909	1513.2219267000
ML02	78	1	stim1_off	1513760874	1513.7608925000
ML02	78	1	response1	1514288425	1514.2884376000
ML02	78	2	stim2_on	1514526327	1514.5263465000
ML02	78	2	stim2_off	1515362901	1515.3629194000
ML02	78	2	response2	1516029790	1516.0298125000
ML02	78	0	trial_end	1516236163	1516.2362502000
ML02	79	0	trial_start	1517482277	1517.4823091000
ML02	79	0	fixation_on	1517482437	1517.4824470000
ML02	79	0	fixation_acquired	1517827653	1517.8276911000
ML02	79	1	stim1_on	1517859244	1517.8592622000
ML02	79	1	stim1_off	1518397423	1518.3974415000
ML02	79	1	response1	1518930884	1518.9308973000
ML02	79	2	stim2_on	1519169301	1519.1693221000
ML02	79	2	stim2_off	1519993138	1519.9931573000
ML02	79	2	response2	1520782679	1520.7827127000
ML02	79	0	trial_end	1520987526	1520.9876108000
ML02	80	0	trial_start	1522236835	1522.2368666000
ML02	80	0	fixation_on	1522236992	1522.2370023000
ML02	80	0	fixation_acquired	1522587256	1522.5872930000
ML02	80	1	stim1_on	1522618655	1522.6186737000
ML02	80	1	stim1_off	1523167206	1523.1672263000
ML02	80	1	response1	1523696609	1523.6966217000
ML02	80	2	stim2_on	1523940769	1523.9407878000
ML02	80	2	stim2_off	1524726406	1524.7264281000
ML02	80	2	response2	1525263795	1525.2638079000
ML02	80	0	trial_end	1525477929	1525.4779924000
ML02	80	0	block_feedback	1528028513	1528.0285372000
ML02	81	0	trial_start	1529773745	1529.7737782000
ML02	81	0	fixation_on	1529773911	1529.7739226000
ML02	81	0	fixation_acquired	1530123694	1530.1237084000
ML02	81	1	stim1_on	1530143777	1530.1437935000
ML02	81	1	stim1_off	1530782698	1530.7827161000
ML02	81	1	response1	1531729471	1531.7294847000
ML02	81	2	stim2_on	1531983242	1531.9832642000
ML02	81	2	stim2_off	1532879162	1532.8792120000
ML02	81	2	response2	1535455576	1535.4555885000
ML02	81	0	trial_end	1535654603	1535.6546236000
ML02	82	0	trial_start	1536900834	1536.9008670000
ML02	82	0	fixation_on	1536900998	1536.9010088000
ML02	82	0	fixation_acquired	1537246954	1537.2469927000
ML02	82	1	stim1_on	1537271865	1537.2719048000
ML02	82	1	stim1_off	1537908717	1537.9087365000
ML02	82	1	response1	1539246701	1539.2467137000
ML02	82	2	stim2_on	1539449585	1539.4496046000
ML02	82	2	stim2_off	1540193943	1540.1939626000
ML02	82	2	response2	1540684837	1540.6848549000
ML02	82	0	trial_end	1540836746	1540.8368098000
ML02	83	0	trial_start	1542085349	1542.0853805000
ML02	83	0	fixation_on	1542085519	1542.0855292000
ML02	83	0	fixation_acquired	1542413067	1542.4131103000
ML02	83	1	stim1_on	1542443999	1542.4440188000
ML02	83	1	stim1_off	1542935852	1542.9358705000
ML02	83	1	response1	1543474076	1543.4740886000
ML02	83	2	stim2_on	1543693265	1543.6932844000
ML02	83	2	stim2_off	1544392659	1544.3926773000
ML02	83	2	response2	1545036260	1545.0362757000
ML02	83	0	trial_end	1545262091	1545.2621740000
ML02	84	0	trial_start	1546527203	1546.5272355000
ML02	84	0	fixation_on	1546527376	1546.5273868000
ML02	84	0	fixation_acquired	1546871734	1546.8717723000
ML02	84	1	stim1_on	1546905848	1546.9058658000
ML02	84	1	stim1_off	1547563408	1547.5634284000
ML02	84	1	response1	1548334800	1548.3348453000
ML02	84	2	stim2_on	1548548795	1548.5488144000
ML02	84	2	stim2_off	1549421322	1549.4213404000
ML02	84	2	response2	1550465573	1550.4655890000
ML02	84	0	trial_end	1550666464	1550.6664842000
ML02	85	0	trial_start	1551918029	1551.9180608000
ML02	85	0	fixation_on	1551918215	1551.9182281000
ML02	85	0	fixation_acquired	1552279805	1552.2798561000
ML02	85	1	stim1_on	1552306295	1552.3063529000
ML02	85	1	stim1_off	1552871551	1552.8715852000
ML02	85	1	response1	1553805660	1553.8056740000
ML02	85	2	stim2_on	1554069709	1554.0697281000
ML02	85	2	stim2_off	1554946146	1554.9461661000
ML02	85	2	response2	1555598679	1555.5987055000
ML02	85	0	trial_end	1555808265	1555.8082842000
ML02	86	0	trial_start	1557055661	1557.0556945000
ML02	86	0	fixation_on	1557055847	1557.0558581000
ML02	86	0	fixation_acquired	1557408310	1557.4083462000
ML02	86	1	stim1_on	1557434189	1557.4342086000
ML02	86	1	stim1_off	1557985970	1557.9859884000
ML02	86	1	response1	1558561329	1558.5613418000
ML02	86	2	stim2_on	1558779015	1558.7790345000
ML02	86	2	stim2_off	1559498387	1559.4984068000
ML02	86	2	response2	1559988727	1559.9887434000
ML02	86	0	trial_end	1560127988	1560.1280076000
ML02	87	0	trial_start	1561370597	1561.3706593000
ML02	87	0	fixation_on	1561370803	1561.3708150000
ML02	87	0	fixation_acquired	1561712912	1561.7129621000
ML02	87	1	stim1_on	1561737087	1561.7371030000
ML02	87	1	stim1_off	1562322871	1562.3228906000
ML02	87	1	response1	1563346831	1563.3468652000
ML02	87	2	stim2_on	1563573914	1563.5739332000
ML02	87	2	stim2_off	1564392967	1564.3929870000
ML02	87	2	response2	1565039799	1565.0398165000
ML02	87	0	trial_end	1565265210	1565.2652728000
ML02	88	0	trial_start	1566541573	1566.5416435000
ML02	88	0	fixation_on	1566541960	1566.5419732000
ML02	88	0	fixation_acquired	1566889782	1566.8898196000
ML02	88	1	stim1_on	1566916210	1566.9162292000
ML02	88	1	stim1_off	1567488956	1567.4889769000
ML02	88	1	response1	1567997203	1567.9972198000
ML02	88	2	stim2_on	1568239518	1568.2395378000
ML02	88	2	stim2_off	1568984538	1568.9845592000
ML02	88	2	response2	1570269869	1570.2698884000
ML02	88	0	trial_end	1570454383	1570.4545231000
ML02	89	0	trial_start	1571704823	1571.7048568000
ML02	89	0	fixation_on	1571705003	1571.7050138000
ML02	89	0	fixation_acquired	1572036340	1572.0363773000
ML02	89	1	stim1_on	1572067225	1572.0672435000
ML02	89	1	stim1_off	1572537990	1572.5380099000
ML02	89	1	response1	1573405899	1573.4059193000
ML02	89	2	stim2_on	1573656183	1573.6562054000
ML02	89	2	stim2_off	1574339564	1574.3395830000
ML02	89	2	response2	1574958202	1574.9582141000
ML02	89	0	trial_end	1575139133	1575.1391981000
ML02	90	0	trial_start	1576411150	1576.4111826000
ML02	90	0	fixation_on	1576411386	1576.4114555000
ML02	90	0	fixation_acquired	1576753395	1576.7534326000
ML02	90	1	stim1_on	1576786296	1576.7863146000
ML02	90	1	stim1_off	1577306366	1577.3063853000
ML02	90	1	response1	1577814843	1577.8148575000
ML02	90	2	stim2_on	1577949807	1577.9498254000
ML02	90	2	stim2_off	1578835112	1578.8351319000
ML02	90	2	response2	1579984865	1579.9848841000
ML02	90	0	trial_end	1580203851	1580.2038710000
ML02	90	0	block_feedback	1583788085	1583.7881101000
ML02	91	0	trial_start	1585745865	1585.7458991000
ML02	91	0	fixation_on	1585746050	1585.7460599000
ML02	91	0	fixation_acquired	1586088054	1586.0880687000
ML02	91	1	stim1_on	1586115226	1586.1152437000
ML02	91	1	stim1_off	1586587237	1586.5872553000
ML02	91	1	response1	1587600143	1587.6001547000
ML02	91	2	stim2_on	1587875605	1587.8756243000
ML02	91	2	stim2_off	1588713169	1588.7131896000
ML02	91	2	response2	1589808093	1589.8081089000
ML02	91	0	trial_end	1590017301	1590.0173655000
ML02	92	0	trial_start	1591301644	1591.3017038000
ML02	92	0	fixation_on	1591301857	1591.3018668000
ML02	92	0	fixation_acquired	1591676253	1591.6762889000
ML02	92	1	stim1_on	1591698043	1591.6980579000
ML02	92	1	stim1_off	1592324042	1592.3240607000
ML02	92	1	response1	1592989545	1592.9895698000
ML02	92	2	stim2_on	1593220032	1593.2200503000
ML02	92	2	stim2_off	1594088623	1594.0886411000
ML02	92	2	response2	1594766080	1594.7660952000
ML02	92	0	trial_end	1594955765	1594.9558459000
ML02	93	0	trial_start	1596224276	1596.2243084000
ML02	93	0	fixation_on	1596224451	1596.2244607000
ML02	93	0	fixation_acquired	1596565964	1596.5660130000
ML02	93	1	stim1_on	1596598184	1596.5982006000
ML02	93	1	stim1_off	1597238947	1597.2389661000
ML02	93	1	response1	1598258243	1598.2582695000
ML02	93	2	stim2_on	1598468224	1598.4682424000
ML02	93	2	stim2_off	1599367142	1599.3671624000
ML02	93	2	response2	1599884448	1599.8844651000
ML02	93	0	trial_end	1600126990	1600.1270747000
ML02	94	0	trial_start	1601408771	1601.4088038000
ML02	94	0	fixation_on	1601408952	1601.4089643000
ML02	94	0	fixation_acquired	1601752969	1601.7530037000
ML02	94	1	stim1_on	1601783446	1601.7834659000
ML02	94	1	stim1_off	1602361496	1602.3615151000
ML02	94	1	response1	1603404160	1603.4041723000
ML02	94	2	stim2_on	1603684100	1603.6841199000
ML02	94	2	stim2_off	1604529354	1604.5293730000
ML02	94	2	response2	1605119878	1605.1198915000
ML02	94	0	trial_end	1605323529	1605.3236095000
ML02	95	0	trial_start	1606603819	1606.6038509000
ML02	95	0	fixation_on	1606603995	1606.6040064000
ML02	95	0	fixation_acquired	1606964128	1606.9641646000
ML02	95	1	stim1_on	1606995287	1606.9953050000
ML02	95	1	stim1_off	1607628750	1607.6287689000
ML02	95	1	response1	1608175404	1608.1754167000
ML02	95	2	stim2_on	1608366616	1608.3666354000
ML02	95	2	stim2_off	1609131167	1609.1311859000
ML02	95	2	response2	1609623862	1609.6238760000
ML02	95	0	trial_end	1609807126	1609.8072083000
ML02	96	0	trial_start	1611078862	1611.0788931000
ML02	96	0	fixation_on	1611079033	1611.0790421000
ML02	96	0	fixation_acquired	1611429821	1611.4298670000
ML02	96	1	stim1_on	1611463299	1611.4633188000
ML02	96	1	stim1_off	1612106627	1612.1066474000
ML02	96	1	response1	1612623125	1612.6231389000
ML02	96	2	stim2_on	1612835655	1612.8356757000
ML02	96	2	stim2_off	1613581011	1613.5810308000
ML02	96	2	response2	1614125177	1614.1251906000
ML02	96	0	trial_end	1614341667	1614.3417143000
ML02	97	0	trial_start	1615634533	1615.6345670000
ML02	97	0	fixation_on	1615634786	1615.6347962000
ML02	97	0	fixation_acquired	1615982670	1615.9826860000
ML02	97	1	stim1_on	1616012937	1616.0129539000
ML02	97	1	stim1_off	1616607222	1616.6072411000
ML02	97	1	response1	1617183655	1617.1836684000
ML02	97	2	stim2_on	1617399545	1617.3995657000
ML02	97	2	stim2_off	1618180710	1618.1807289000
ML02	97	2	response2	1619280507	1619.2805233000
ML02	97	0	trial_end	1619487702	1619.4877877000
ML02	98	0	trial_start	1620779137	1620.7791875000
ML02	98	0	fixation_on	1620779348	1620.7793593000
ML02	98	0	fixation_acquired	1621119510	1621.1195241000
ML02	98	1	stim1_on	1621148184	1621.1482022000
ML02	98	1	stim1_off	1621815904	1621.8159391000
ML02	98	1	response1	1623088934	1623.0889466000
ML02	98	2	stim2_on	1623307609	1623.3076303000
ML02	98	2	stim2_off	1624001228	1624.0012477000
ML02	98	2	response2	1624494091	1624.4941049000
ML02	98	0	trial_end	1624728289	1624.7283082000
ML02	99	0	trial_start	1626022434	1626.0224648000
ML02	99	0	fixation_on	1626022607	1626.0226173000
ML02	99	0	fixation_acquired	1626376264	1626.3763123000
ML02	99	1	stim1_on	1626409196	1626.4092158000
ML02	99	1	stim1_off	1626993091	1626.9931109000
ML02	99	1	response1	1627661920	1627.6619397000
ML02	99	2	stim2_on	1627919856	1627.9198760000
ML02	99	2	stim2_off	1628740025	1628.7400439000
ML02	99	2	response2	1629376880	1629.3769125000
ML02	99	0	trial_end	1629629066	1629.6290852000
ML02	100	0	trial_start	1630919056	1630.9190873000
ML02	100	0	fixation_on	1630919233	1630.9192446000
ML02	100	0	fixation_acquired	1631270425	1631.2704745000
ML02	100	1	stim1_on	1631300609	1631.3006244000
ML02	100	1	stim1_off	1631781499	1631.7815177000
ML02	100	1	response1	1633454561	1633.4545721000
ML02	100	2	stim2_on	1633707728	1633.7077468000
ML02	100	2	stim2_off	1634503164	1634.5031845000
ML02	100	2	response2	1635950157	1635.9501759000
ML02	100	0	trial_end	1636142006	1636.1420903000
ML02	100	0	block_feedback	1641356008	1641.3560305000
ML02	100	0	break_start	1642317056	1642.3170876000
ML02	100	0	break_end	1646700283	1646.7003223000
ML02	101	0	trial_start	1646700607	1646.7006293000
ML02	101	0	fixation_on	1646700739	1646.7007543000
ML02	101	0	fixation_acquired	1647069917	1647.0699659000
ML02	101	1	stim1_on	1647100448	1647.1004666000
ML02	101	1	stim1_off	1647698762	1647.6987804000
ML02	101	1	response1	1648208735	1648.2087505000
ML02	101	2	stim2_on	1648463843	1648.4638617000
ML02	101	2	stim2_off	1649175377	1649.1753963000
ML02	101	2	response2	1649773778	1649.7737900000
ML02	101	0	trial_end	1649983027	1649.9831175000
ML02	102	0	trial_start	1651295285	1651.2953369000
ML02	102	0	fixation_on	1651295480	1651.2954913000
ML02	102	0	fixation_acquired	1651658980	1651.6590170000
ML02	102	1	stim1_on	1651691627	1651.6916456000
ML02	102	1	stim1_off	1652360209	1652.3602280000
ML02	102	1	response1	1653230487	1653.2305016000
ML02	102	2	stim2_on	1653477941	1653.4779596000
ML02	102	2	stim2_off	1654199219	1654.1992386000
ML02	102	2	response2	1654783099	1654.7831111000
ML02	102	0	trial_end	1655007542	1655.0075834000
ML02	103	0	trial_start	1656310238	1656.3102695000
ML02	103	0	fixation_on	1656310424	1656.3104353000
ML02	103	0	fixation_acquired	1656653350	1656.6533991000
ML02	103	1	stim1_on	1656685502	1656.6855200000
ML02	103	1	stim1_off	1657179204	1657.1792221000
ML02	103	1	response1	1657708241	1657.7082563000
ML02	103	2	stim2_on	1657871268	1657.8712863000
ML02	103	2	stim2_off	1658675961	1658.6760212000
ML02	103	2	response2	1659229417	1659.2294301000
ML02	103	0	trial_end	1659432979	1659.4331061000
ML02	104	0	trial_start	1660729619	1660.7296538000
ML02	104	0	fixation_on	1660729820	1660.7298304000
ML02	104	0	fixation_acquired	1661092146	1661.0921818000
ML02	104	1	stim1_on	1661125855	1661.1258749000
ML02	104	1	stim1_off	1661616346	1661.6163657000
ML02	104	1	response1	1662291140	1662.2911725000
ML02	104	2	stim2_on	1662535748	1662.5357673000
ML02	104	2	stim2_off	1663346329	1663.3463477000
ML02	104	2	response2	1663870611	1663.8706235000
ML02	104	0	trial_end	1664090187	1664.0902486000
ML02	105	0	trial_start	1665398603	1665.3986366000
ML02	105	0	fixation_on	1665398804	1665.3988135000
ML02	105	0	fixation_acquired	1665755204	1665.7552434000
ML02	105	1	stim1_on	1665786350	1665.7863676000
ML02	105	1	stim1_off	1666282087	1666.2821069000
ML02	105	1	response1	1666957525	1666.9575373000
ML02	105	2	stim2_on	1667219556	1667.2195763000
ML02	105	2	stim2_off	1668078102	1668.0781212000
ML02	105	2	response2	1668880140	1668.8801542000
ML02	105	0	trial_end	1669065750	1669.0657699000
ML02	106	0	trial_start	1670360045	1670.3600777000
ML02	106	0	fixation_on	1670360320	1670.3603290000
ML02	106	0	fixation_acquired	1670727706	1670.7277419000
ML02	106	1	stim1_on	1670754472	1670.7544901000
ML02	106	1	stim1_off	1671240920	1671.2409387000
ML02	106	1	response1	1671871376	1671.8713882000
ML02	106	2	stim2_on	1672120140	1672.1201583000
ML02	106	2	stim2_off	1672980476	1672.9804959000
ML02	106	2	response2	1673646292	1673.6463076000
ML02	106	0	trial_end	1673847022	1673.8470479000
ML02	107	0	trial_start	1675149084	1675.1491155000
ML02	107	0	fixation_on	1675149266	1675.1492783000
ML02	107	0	fixation_acquired	1675512168	1675.5122023000
ML02	107	1	stim1_on	1675541779	1675.5417968000
ML02	107	1	stim1_off	1676018029	1676.0180880000
ML02	107	1	response1	1676556998	1676.5570124000
ML02	107	2	stim2_on	1676792139	1676.7921598000
ML02	107	2	stim2_off	1677569047	1677.5690660000
ML02	107	2	response2	1678051866	1678.0518811000
ML02	107	0	trial_end	1678185157	1678.1852013000
ML02	108	0	trial_start	1679490467	1679.4904971000
ML02	108	0	fixation_on	1679490647	1679.4906559000
ML02	108	0	fixation_acquired	1679842022	1679.8420596000
ML02	108	1	stim1_on	1679874070	1679.8740881000
ML02	108	1	stim1_off	1680571262	1680.5712885000
ML02	108	1	response1	1681074877	1681.0748909000
ML02	108	2	stim2_on	1681303447	1681.3034651000
ML02	108	2	stim2_off	1682003479	1682.0034978000
ML02	108	2	response2	1682515159	1682.5151728000
ML02	108	0	trial_end	1682774215	1682.7742475000
ML02	109	0	trial_start	1684094551	1684.0945846000
ML02	109	0	fixation_on	1684094784	1684.0947944000
ML02	109	0	fixation_acquired	1684450107	1684.4501430000
ML02	109	1	stim1_on	1684482501	1684.4825219000
ML02	109	1	stim1_off	1685145740	1685.1457588000
ML02	109	1	response1	1685650551	1685.6505666000
ML02	109	2	stim2_on	1685787980	1685.7879993000
ML02	109	2	stim2_off	1686599992	1686.6000106000
ML02	109	2	response2	1687080496	1687.0805105000
ML02	109	0	trial_end	1687300700	1687.3007196000
ML02	110	0	trial_start	1688619531	1688.6195620000
ML02	110	0	fixation_on	1688619721	1688.6197312000
ML02	110	0	fixation_acquired	1688981785	1688.9818219000
ML02	110	1	stim1_on	1689014255	1689.0142744000
ML02	110	1	stim1_off	1689549924	1689.5499425000
ML02	110	1	response1	1690067615	1690.0676337000
ML02	110	2	stim2_on	1690225568	1690.2256040000
ML02	110	2	stim2_off	1691028238	1691.0282573000
ML02	110	2	response2	1691508634	1691.5086495000
ML02	110	0	trial_end	1691688276	1691.6882952000
ML02	110	0	block_feedback	1694395950	1694.3959736000
ML02	111	0	trial_start	1696372941	1696.3729727000
ML02	111	0	fixation_on	1696373128	1696.3731392000
ML02	111	0	fixation_acquired	1696753376	1696.7533983000
ML02	111	1	stim1_on	1696791741	1696.7917609000
ML02	111	1	stim1_off	1697326753	1697.3267719000
ML02	111	1	response1	1697846973	1697.8469872000
ML02	111	2	stim2_on	1698034862	1698.0348811000
ML02	111	2	stim2_off	1698899136	1698.8991564000
ML02	111	2	response2	1699389442	1699.3894553000
ML02	111	0	trial_end	1699575371	1699.5754107000
ML02	112	0	trial_start	1700896200	1700.8962296000
ML02	112	0	fixation_on	1700896576	1700.8965892000
ML02	112	0	fixation_acquired	1701283560	1701.2835954000
ML02	112	1	stim1_on	1701313926	1701.3139448000
ML02	112	1	stim1_off	1701888287	1701.8883064000
ML02	112	1	response1	1702431775	1702.4317867000
ML02	112	2	stim2_on	1702708205	1702.7082620000
ML02	112	2	stim2_off	1703429592	1703.4296108000
ML02	112	2	response2	1703932345	1703.9323616000
ML02	112	0	trial_end	1704071122	1704.0711683000
ML02	113	0	trial_start	1705389906	1705.3899367000
ML02	113	0	fixation_on	1705390095	1705.3901065000
ML02	113	0	fixation_acquired	1705747621	1705.7476585000
ML02	113	1	stim1_on	1705779685	1705.7797040000
ML02	113	1	stim1_off	1706394888	1706.3949085000
ML02	113	1	response1	1706903110	1706.9031257000
ML02	113	2	stim2_on	1707141773	1707.1417932000
ML02	113	2	stim2_off	1707935632	1707.9356510000
ML02	113	2	response2	1708417397	1708.4174128000
ML02	113	0	trial_end	1708570591	1708.5706377000
ML02	114	0	trial_start	1709920435	1709.9204670000
ML02	114	0	fixation_on	1709920632	1709.9206430000
ML02	114	0	fixation_acquired	1710297115	1710.2971673000
ML02	114	1	stim1_on	1710327395	1710.3274137000
ML02	114	1	stim1_off	1710825268	1710.8252860000
ML02	114	1	response1	1711375940	1711.3759518000
ML02	114	2	stim2_on	1711590285	1711.5903037000
ML02	114	2	stim2_off	1712495196	1712.4952158000
ML02	114	2	response2	1712958673	1712.9586887000
ML02	114	0	trial_end	1713132236	1713.1322835000
ML02	115	0	trial_start	1714459200	1714.4592334000
ML02	115	0	fixation_on	1714459444	1714.4594538000
ML02	115	0	fixation_acquired	1714823263	1714.8232966000
ML02	115	1	stim1_on	1714854950	1714.8549684000
ML02	115	1	stim1_off	1715392233	1715.3922518000
ML02	115	1	response1	1715910176	1715.9101904000
ML02	115	2	stim2_on	1716069298	1716.0693161000
ML02	115	2	stim2_off	1716905733	1716.9057522000
ML02	115	2	response2	1717382360	1717.3823749000
ML02	115	0	trial_end	1717559736	1717.5597561000
ML02	116	0	trial_start	1718888052	1718.8880830000
ML02	116	0	fixation_on	1718888246	1718.8882576000
ML02	116	0	fixation_acquired	1719264109	1719.2641451000
ML02	116	1	stim1_on	1719291694	1719.2917118000
ML02	116	1	stim1_off	1719827884	1719.8279022000
ML02	116	1	response1	1720525724	1720.5257399000
ML02	116	2	stim2_on	1720753622	1720.7536406000
ML02	116	2	stim2_off	1721642487	1721.6425139000
ML02	116	2	response2	1722846872	1722.8468876000
ML02	116	0	trial_end	1723018430	1723.0184507000
ML02	117	0	trial_start	1724354605	1724.3546371000
ML02	117	0	fixation_on	1724354824	1724.3548345000
ML02	117	0	fixation_acquired	1724721141	1724.7211740000
ML02	117	1	stim1_on	1724749108	1724.7491264000
ML02	117	1	stim1_off	1725228974	1725.2289929000
ML02	117	1	response1	1725752052	1725.7520667000
ML02	117	2	stim2_on	1725931885	1725.9319040000
ML02	117	2	stim2_off	1726761247	1726.7612654000
ML02	117	2	response2	1727740891	1727.7409276000
ML02	117	0	trial_end	1727963017	1727.9631002000
ML02	118	0	trial_start	1729307115	1729.3071459000
ML02	118	0	fixation_on	1729307312	1729.3073225000
ML02	118	0	fixation_acquired	1729691918	1729.6919354000
ML02	118	1	stim1_on	1729720530	1729.7205470000
ML02	118	1	stim1_off	1730385658	1730.3856759000
ML02	118	1	response1	1730893897	1730.8939130000
ML02	118	2	stim2_on	1731012796	1731.0128350000
ML02	118	2	stim2_off	1731730986	1731.7310059000
ML02	118	2	response2	1733149365	1733.1493771000
ML02	118	0	trial_end	1733420024	1733.4200682000
ML02	119	0	trial_start	1734759972	1734.7600036000
ML02	119	0	fixation_on	1734760169	1734.7601789000
ML02	119	0	fixation_acquired	1735148127	1735.1481898000
ML02	119	1	stim1_on	1735174408	1735.1744239000
ML02	119	1	stim1_off	1735858100	1735.8581184000
ML02	119	1	response1	1736353351	1736.3533664000
ML02	119	2	stim2_on	1736579002	1736.5790227000
ML02	119	2	stim2_off	1737460479	1737.4604978000
ML02	119	2	response2	1737932898	1737.9329131000
ML02	119	0	trial_end	1738049681	1738.0497010000
ML02	120	0	trial_start	1739370796	1739.3708271000
ML02	120	0	fixation_on	1739370992	1739.3710016000
ML02	120	0	fixation_acquired	1739757260	1739.7572761000
ML02	120	1	stim1_on	1739778697	1739.7787127000
ML02	120	1	stim1_off	1740359328	1740.3593468000
ML02	120	1	response1	1741115723	1741.1157353000
ML02	120	2	stim2_on	1741377910	1741.3779291000
ML02	120	2	stim2_off	1742290625	1742.2906439000
ML02	120	2	response2	1742877245	1742.8772776000
ML02	120	0	trial_end	1743096792	1743.0968721000
ML02	120	0	block_feedback	1745403700	1745.4037241000
ML02	121	0	trial_start	1747383141	1747.3831737000
ML02	121	0	fixation_on	1747383345	1747.3833582000
ML02	121	0	fixation_acquired	1747749874	1747.7498917000
ML02	121	1	stim1_on	1747778665	1747.7786813000
ML02	121	1	stim1_off	1748407686	1748.4077061000
ML02	121	1	response1	1749647388	1749.6474037000
ML02	121	2	stim2_on	1749900285	1749.9003031000
ML02	121	2	stim2_off	1750817416	1750.8174351000
ML02	121	2	response2	1751473223	1751.4732421000
ML02	121	0	trial_end	1751659855	1751.6598746000
ML02	122	0	trial_start	1752979580	1752.9796117000
ML02	122	0	fixation_on	1752979789	1752.9797996000
ML02	122	0	fixation_acquired	1753345864	1753.3459026000
ML02	122	1	stim1_on	1753393026	1753.3930451000
ML02	122	1	stim1_off	1754076959	1754.0769771000
ML02	122	1	response1	1754583921	1754.5839371000
ML02	122	2	stim2_on	1754680394	1754.6804144000
ML02	122	2	stim2_off	1755409384	1755.4094024000
ML02	122	2	response2	1755896889	1755.8969034000
ML02	122	0	trial_end	1756047205	1756.0472237000
ML02	123	0	trial_start	1757380609	1757.3806409000
ML02	123	0	fixation_on	1757380814	1757.3808268000
ML02	123	0	fixation_acquired	1757758401	1757.7584177000
ML02	123	1	stim1_on	1757787116	1757.7871330000
ML02	123	1	stim1_off	1758276032	1758.2760502000
ML02	123	1	response1	1759726357	1759.7263995000
ML02	123	2	stim2_on	1759963110	1759.9631290000
ML02	123	2	stim2_off	1760899748	1760.8997677000
ML02	123	2	response2	1762236901	1762.2369158000
ML02	123	0	trial_end	1762406801	1762.4068219000
ML02	124	0	trial_start	1763735494	1763.7355268000
ML02	124	0	fixation_on	1763735699	1763.7357100000
ML02	124	0	fixation_acquired	1764129280	1764.1293170000
ML02	124	1	stim1_on	1764161541	1764.1615594000
ML02	124	1	stim1_off	1764834960	1764.8349787000
ML02	124	1	response1	1765823403	1765.8234147000
ML02	124	2	stim2_on	1766037282	1766.0373037000
ML02	124	2	stim2_off	1766937240	1766.9372590000
ML02	124	2	response2	1767404783	1767.4047993000
ML02	124	0	trial_end	1767583968	1767.5840491000
ML02	125	0	trial_start	1768940931	1768.9409629000
ML02	125	0	fixation_on	1768941130	1768.9411391000
ML02	125	0	fixation_acquired	1769331944	1769.3319810000
ML02	125	1	stim1_on	1769363402	1769.3634199000
ML02	125	1	stim1_off	1769921313	1769.9213328000
ML02	125	1	response1	1771341460	1771.3414753000
ML02	125	2	stim2_on	1771574082	1771.5741016000
ML02	125	2	stim2_off	1772445897	1772.4459150000
ML02	125	2	response2	1773072873	1773.0728854000
ML02	125	0	trial_end	1773266333	1773.2664164000
ML02	126	0	trial_start	1774616223	1774.6162556000
ML02	126	0	fixation_on	1774616466	1774.6164783000
ML02	126	0	fixation_acquired	1774989363	1774.9893785000
ML02	126	1	stim1_on	1775010303	1775.0103180000
ML02	126	1	stim1_off	1775706780	1775.7068000000
ML02	126	1	response1	1776236981	1776.2369935000
ML02	126	2	stim2_on	1776477825	1776.4778707000
ML02	126	2	stim2_off	1777409089	1777.4091087000
ML02	126	2	response2	1778065187	1778.0651994000
ML02	126	0	trial_end	1778271730	1778.2717509000
ML02	127	0	trial_start	1779613022	1779.6130526000
ML02	127	0	fixation_on	1779613229	1779.6132395000
ML02	127	0	fixation_acquired	1779999038	1779.9990747000
ML02	127	1	stim1_on	1780031106	1780.0311247000
ML02	127	1	stim1_off	1780701786	1780.7018060000
ML02	127	1	response1	1781207731	1781.2077463000
ML02	127	2	stim2_on	1781374012	1781.3740307000
ML02	127	2	stim2_off	1782268517	1782.2685360000
ML02	127	2	response2	1782861459	1782.8614703000
ML02	127	0	trial_end	1783061224	1783.0612629000
ML02	128	0	trial_start	1784422979	1784.4230134000
ML02	128	0	fixation_on	1784423220	1784.4232311000
ML02	128	0	fixation_acquired	1784790272	1784.7903206000
ML02	128	1	stim1_on	1784818842	1784.8188583000
ML02	128	1	stim1_off	1785510184	1785.5102033000
ML02	128	1	response1	1786321122	1786.3211336000
ML02	128	2	stim2_on	1786552967	1786.5529865000
ML02	128	2	stim2_off	1787392393	1787.3924127000
ML02	128	2	response2	1789150898	1789.1509116000
ML02	128	0	trial_end	1789384544	1789.3846320000
ML02	129	0	trial_start	1790755904	1790.7559367000
ML02	129	0	fixation_on	1790756148	1790.7561595000
ML02	129	0	fixation_acquired	1791114721	1791.1147342000
ML02	129	1	stim1_on	1791153497	1791.1535171000
ML02	129	1	stim1_off	1791682893	1791.6829119000
ML02	129	1	response1	1792448418	1792.4484519000
ML02	129	2	stim2_on	1792736570	1792.7365905000
ML02	129	2	stim2_off	1793635604	1793.6356229000
ML02	129	2	response2	1794173473	1794.1734859000
ML02	129	0	trial_end	1794411317	1794.4113756000
ML02	130	0	trial_start	1795763244	1795.7632758000
ML02	130	0	fixation_on	1795763448	1795.7634577000
ML02	130	0	fixation_acquired	1796163559	1796.1635950000
ML02	130	1	stim1_on	1796195501	1796.1955197000
ML02	130	1	stim1_off	1796869627	1796.8696475000
ML02	130	1	response1	1797597912	1797.5979292000
ML02	130	2	stim2_on	1797845903	1797.8459218000
ML02	130	2	stim2_off	1798761680	1798.7617012000
ML02	130	2	response2	1799265454	1799.2654665000
ML02	130	0	trial_end	1799459270	1799.4593161000
ML02	130	0	block_feedback	1802075548	1802.0755712000
ML02	131	0	trial_start	1804188315	1804.1883487000
ML02	131	0	fixation_on	1804188579	1804.1885903000
ML02	131	0	fixation_acquired	1804575150	1804.5751871000
ML02	131	1	stim1_on	1804606449	1804.6064678000
ML02	131	1	stim1_off	1805156941	1805.1569613000
ML02	131	1	response1	1805963566	1805.9635853000
ML02	131	2	stim2_on	1806185542	1806.1855605000
ML02	131	2	stim2_off	1807075634	1807.0756538000
ML02	131	2	response2	1807538057	1807.5380715000
ML02	131	0	trial_end	1807749963	1807.7500125000
ML02	132	0	trial_start	1809137295	1809.1373772000
ML02	132	0	fixation_on	1809137587	1809.1375972000
ML02	132	0	fixation_acquired	1809538960	1809.5389818000
ML02	132	1	stim1_on	1809564485	1809.5645031000
ML02	132	1	stim1_off	1810114171	1810.1141907000
ML02	132	1	response1	1810689820	1810.6898315000
ML02	132	2	stim2_on	1810905510	1810.9055293000
ML02	132	2	stim2_off	1811771987	1811.7720070000
ML02	132	2	response2	1812244879	1812.2448952000
ML02	132	0	trial_end	1812374393	1812.3744127000
ML02	133	0	trial_start	1813713798	1813.7138321000
ML02	133	0	fixation_on	1813714029	1813.7140402000
ML02	133	0	fixation_acquired	1814076589	1814.0766259000
ML02	133	1	stim1_on	1814113486	1814.1135035000
ML02	133	1	stim1_off	1814661677	1814.6616974000
ML02	133	1	response1	1815186255	1815.1862697000
ML02	133	2	stim2_on	1815329445	1815.3294641000
ML02	133	2	stim2_off	1816078716	1816.0787344000
ML02	133	2	response2	1816812510	1816.8125231000
ML02	133	0	trial_end	1817028779	1817.0287988000
ML02	134	0	trial_start	1818416568	1818.4166007000
ML02	134	0	fixation_on	1818416793	1818.4168030000
ML02	134	0	fixation_acquired	1818807299	1818.8073604000
ML02	134	1	stim1_on	1818836769	1818.8367870000
ML02	134	1	stim1_off	1819490259	1819.4902782000
ML02	134	1	response1	1819993911	1819.9939276000
ML02	134	2	stim2_on	1820199774	1820.1997923000
ML02	134	2	stim2_off	1821079982	1821.0800012000
ML02	134	2	response2	1821554112	1821.5541266000
ML02	134	0	trial_end	1821705638	1821.7057184000
ML02	135	0	trial_start	1823058353	1823.0583851000
ML02	135	0	fixation_on	1823058580	1823.0585934000
ML02	135	0	fixation_acquired	1823457110	1823.4571573000
ML02	135	1	stim1_on	1823487133	1823.4871520000
ML02	135	1	stim1_off	1824042820	1824.0428572000
ML02	135	1	response1	1824584073	1824.5840885000
ML02	135	2	stim2_on	1824699638	1824.6996564000
ML02	135	2	stim2_off	1825640522	1825.6405407000
ML02	135	2	response2	1826102226	1826.1022420000
ML02	135	0	trial_end	1826134084	1826.1341249000
ML02	136	0	trial_start	1827467911	1827.4679424000
ML02	136	0	fixation_on	1827468128	1827.4681381000
ML02	136	0	fixation_acquired	1827839889	1827.8399344000
ML02	136	1	stim1_on	1827872376	1827.8723951000
ML02	136	1	stim1_off	1828567697	1828.5677165000
ML02	136	1	response1	1829068617	1829.0686328000
ML02	136	2	stim2_on	1829146589	1829.1466071000
ML02	136	2	stim2_off	1830098388	1830.0984065000
ML02	136	2	response2	1830604318	1830.6043302000
ML02	136	0	trial_end	1830802964	1830.8029830000
ML02	137	0	trial_start	1832185489	1832.1855203000
ML02	137	0	fixation_on	1832185726	1832.1857369000
ML02	137	0	fixation_acquired	1832558856	1832.5588706000
ML02	137	1	stim1_on	1832596556	1832.5965748000
ML02	137	1	stim1_off	1833280596	1833.2806140000
ML02	137	1	response1	1833783816	1833.7838305000
ML02	137	2	stim2_on	1833967500	1833.9675188000
ML02	137	2	stim2_off	1834727698	1834.7277170000
ML02	137	2	response2	1835217087	1835.2171012000
ML02	137	0	trial_end	1835349751	1835.3497703000
ML02	138	0	trial_start	1836709252	1836.7092872000
ML02	138	0	fixation_on	1836709767	1836.7097955000
ML02	138	0	fixation_acquired	1837085496	1837.0855309000
ML02	138	1	stim1_on	1837122938	1837.1229548000
ML02	138	1	stim1_off	1837634742	1837.6347603000
ML02	138	1	response1	1838163934	1838.1639488000
ML02	138	2	stim2_on	1838340393	1838.3404117000
ML02	138	2	stim2_off	1839214089	1839.2141073000
ML02	138	2	response2	1840380937	1840.3809706000
ML02	138	0	trial_end	1840599802	1840.5998861000
ML02	139	0	trial_start	1842000530	1842.0005797000
ML02	139	0	fixation_on	1842000866	1842.0008768000
ML02	139	0	fixation_acquired	1842385334	1842.3853480000
ML02	139	1	stim1_on	1842421345	1842.4213646000
ML02	139	1	stim1_off	1842992959	1842.9929779000
ML02	139	1	response1	1843517158	1843.5171732000
ML02	139	2	stim2_on	1843612002	1843.6120197000
ML02	139	2	stim2_off	1844381921	1844.3819402000
ML02	139	2	response2	1845581830	1845.5818510000
ML02	139	0	trial_end	1845803823	1845.8038997000
ML02	140	0	trial_start	1847198777	1847.1988086000
ML02	140	0	fixation_on	1847199107	1847.1991184000
ML02	140	0	fixation_acquired	1847585174	1847.5852219000
ML02	140	1	stim1_on	1847617675	1847.6176997000
ML02	140	1	stim1_off	1848316380	1848.3163995000
ML02	140	1	response1	1851423037	1851.4230705000
ML02	140	2	stim2_on	1851681111	1851.6811309000
ML02	140	2	stim2_off	1852425802	1852.4258209000
ML02	140	2	response2	1852917638	1852.9176539000
ML02	140	0	trial_end	1853114770	1853.1148307000
ML02	140	0	block_feedback	1856619411	1856.6194349000
ML02	141	0	trial_start	1858978547	1858.9785784000
ML02	141	0	fixation_on	1858978806	1858.9788185000
ML02	141	0	fixation_acquired	1859386433	1859.3864676000
ML02	141	1	stim1_on	1859423433	1859.4234514000
ML02	141	1	stim1_off	1859908770	1859.9088243000
ML02	141	1	response1	1860508445	1860.5084571000
ML02	141	2	stim2_on	1860724557	1860.7245767000
ML02	141	2	stim2_off	1861622824	1861.6228433000
ML02	141	2	response2	1862088187	1862.0882025000
ML02	141	0	trial_end	1862257533	1862.2575971000
ML02	142	0	trial_start	1863642226	1863.6422847000
ML02	142	0	fixation_on	1863642704	1863.6427163000
ML02	142	0	fixation_acquired	1864055660	1864.0557170000
ML02	142	1	stim1_on	1864075504	1864.0755553000
ML02	142	1	stim1_off	1864706040	1864.7060593000
ML02	142	1	response1	1865217090	1865.2171210000
ML02	142	2	stim2_on	1865371866	1865.3718841000
ML02	142	2	stim2_off	1866133213	1866.1332318000
ML02	142	2	response2	1866640124	1866.6401367000
ML02	142	0	trial_end	1866853691	1866.8537378000
ML02	143	0	trial_start	1868258381	1868.2584130000
ML02	143	0	fixation_on	1868258652	1868.2586632000
ML02	143	0	fixation_acquired	1868682035	1868.6820509000
ML02	143	1	stim1_on	1868713021	1868.7130393000
ML02	143	1	stim1_off	1869358189	1869.3582083000
ML02	143	1	response1	1869934139	1869.9341515000
ML02	143	2	stim2_on	1870166284	1870.1663034000
ML02	143	2	stim2_off	1870949001	1870.9490203000
ML02	143	2	response2	1871665699	1871.6657328000
ML02	143	0	trial_end	1871853772	1871.8538021000
ML02	144	0	trial_start	1873239951	1873.2399830000
ML02	144	0	fixation_on	1873240203	1873.2402155000
ML02	144	0	fixation_acquired	1873627209	1873.6272420000
ML02	144	1	stim1_on	1873658021	1873.6580400000
ML02	144	1	stim1_off	1874347120	1874.3471383000
ML02	144	1	response1	1874867428	1874.8674446000
ML02	144	2	stim2_on	1874956413	1874.9564333000
ML02	144	2	stim2_off	1875677979	1875.6779962000
ML02	144	2	response2	1876413720	1876.4137352000
ML02	144	0	trial_end	1876614725	1876.6147718000
ML02	145	0	trial_start	1878027773	1878.0278074000
ML02	145	0	fixation_on	1878028068	1878.0280803000
ML02	145	0	fixation_acquired	1878422928	1878.4229427000
ML02	145	1	stim1_on	1878453125	1878.4531423000
ML02	145	1	stim1_off	1879179934	1879.1799521000
ML02	145	1	response1	1879685494	1879.6855095000
ML02	145	2	stim2_on	1879819939	1879.8199590000
ML02	145	2	stim2_off	1880760698	1880.7607167000
ML02	145	2	response2	1881222224	1881.2222383000
ML02	145	0	trial_end	1881410188	1881.4102630000
ML02	146	0	trial_start	1882800297	1882.8003273000
ML02	146	0	fixation_on	1882800557	1882.8005691000
ML02	146	0	fixation_acquired	1883204970	1883.2050047000
ML02	146	1	stim1_on	1883257225	1883.2572437000
ML02	146	1	stim1_off	1883944795	1883.9448172000
ML02	146	1	response1	1884491288	1884.4913016000
ML02	146	2	stim2_on	1884743755	1884.7437735000
ML02	146	2	stim2_off	1885559886	1885.5599047000
ML02	146	2	response2	1886414756	1886.4147901000
ML02	146	0	trial_end	1886605661	1886.6056808000
ML02	147	0	trial_start	1888083692	1888.0837280000
ML02	147	0	fixation_on	1888084043	1888.0840561000
ML02	147	0	fixation_acquired	1888540430	1888.5404558000
ML02	147	1	stim1_on	1888583753	1888.5837741000
ML02	147	1	stim1_off	1889305218	1889.3052361000
ML02	147	1	response1	1889822372	1889.8223848000
ML02	147	2	stim2_on	1890071907	1890.0719298000
ML02	147	2	stim2_off	1890861000	1890.8610186000
ML02	147	2	response2	1891613383	1891.6133955000
ML02	147	0	trial_end	1891819033	1891.8191199000
ML02	148	0	trial_start	1893234190	1893.2342235000
ML02	148	0	fixation_on	1893234501	1893.2345141000
ML02	148	0	fixation_acquired	1893637035	1893.6370705000
ML02	148	1	stim1_on	1893673505	1893.6735239000
ML02	148	1	stim1_off	1894258255	1894.2582734000
ML02	148	1	response1	1894784025	1894.7840409000
ML02	148	2	stim2_on	1894882812	1894.8828327000
ML02	148	2	stim2_off	1895764191	1895.7642100000
ML02	148	2	response2	1896240655	1896.2406703000
ML02	148	0	trial_end	1896378158	1896.3782045000
ML02	149	0	trial_start	1897759677	1897.7597097000
ML02	149	0	fixation_on	1897759904	1897.7599146000
ML02	149	0	fixation_acquired	1898140803	1898.1408651000
ML02	149	1	stim1_on	1898173871	1898.1738894000
ML02	149	1	stim1_off	1898741229	1898.7412477000
ML02	149	1	response1	1899260161	1899.2601753000
ML02	149	2	stim2_on	1899414609	1899.4146287000
ML02	149	2	stim2_off	1900262858	1900.2628779000
ML02	149	2	response2	1900736587	1900.7366079000
ML02	149	0	trial_end	1900862458	1900.8624777000
ML02	150	0	trial_start	1902233292	1902.2333265000
ML02	150	0	fixation_on	1902233593	1902.2336035000
ML02	150	0	fixation_acquired	1902627597	1902.6276437000
ML02	150	1	stim1_on	1902665428	1902.6654467000
ML02	150	1	stim1_off	1903185580	1903.1855980000
ML02	150	1	response1	1903717140	1903.7171582000
ML02	150	2	stim2_on	1903821453	1903.8214716000
ML02	150	2	stim2_off	1904755763	1904.7557833000
ML02	150	2	response2	1905223541	1905.2235559000
ML02	150	0	trial_end	1905260475	1905.2604948000
ML02	150	0	block_feedback	1908523316	1908.5233401000
ML02	150	0	break_start	1909421797	1909.4218191000
ML02	150	0	break_end	1910627173	1910.6272058000
ML02	151	0	trial_start	1910627550	1910.6275675000
ML02	151	0	fixation_on	1910627687	1910.6276974000
ML02	151	0	fixation_acquired	1911070350	1911.0703861000
ML02	151	1	stim1_on	1911099399	1911.0994170000
ML02	151	1	stim1_off	1911806004	1911.8060237000
ML02	151	1	response1	1912732014	1912.7320477000
ML02	151	2	stim2_on	1912994542	1912.9945620000
ML02	151	2	stim2_off	1913765851	1913.7658701000
ML02	151	2	response2	1914262928	1914.2629435000
ML02	151	0	trial_end	1914472016	1914.4720915000
ML02	152	0	trial_start	1915881431	1915.8814658000
ML02	152	0	fixation_on	1915881712	1915.8817244000
ML02	152	0	fixation_acquired	1916298261	1916.2982752000
ML02	152	1	stim1_on	1916325004	1916.3250208000
ML02	152	1	stim1_off	1916940314	1916.9403331000
ML02	152	1	response1	1917503026	1917.5030386000
ML02	152	2	stim2_on	1917740663	1917.7406833000
ML02	152	2	stim2_off	1918592265	1918.5922842000
ML02	152	2	response2	1919071044	1919.0710660000
ML02	152	0	trial_end	1919213092	1919.2131314000
ML02	153	0	trial_start	1920597483	1920.5975164000
ML02	153	0	fixation_on	1920597722	1920.5977315000
ML02	153	0	fixation_acquired	1921004670	1921.0047077000
ML02	153	1	stim1_on	1921041863	1921.0418805000
ML02	153	1	stim1_off	1921548265	1921.5482852000
ML02	153	1	response1	1922083799	1922.0838144000
ML02	153	2	stim2_on	1922184078	1922.1840969000
ML02	153	2	stim2_off	1923160949	1923.1609686000
ML02	153	2	response2	1923618778	1923.6187981000
ML02	153	0	trial_end	1923644809	1923.6448332000
ML02	154	0	trial_start	1925017745	1925.0177763000
ML02	154	0	fixation_on	1925017995	1925.0180063000
ML02	154	0	fixation_acquired	1925418985	1925.4190072000
ML02	154	1	stim1_on	1925445748	1925.4457649000
ML02	154	1	stim1_off	1925959222	1925.9592409000
ML02	154	1	response1	1926637297	1926.6373196000
ML02	154	2	stim2_on	1926916310	1926.9163282000
ML02	154	2	stim2_off	1927726886	1927.7269051000
ML02	154	2	response2	1928365611	1928.3656280000
ML02	154	0	trial_end	1928564846	1928.5648684000
ML02	155	0	trial_start	1929970853	1929.9709531000
ML02	155	0	fixation_on	1929971365	1929.9713759000
ML02	155	0	fixation_acquired	1930362988	1930.3630031000
ML02	155	1	stim1_on	1930396185	1930.3962037000
ML02	155	1	stim1_off	1931117061	1931.1170809000
ML02	155	1	response1	1931620107	1931.6201223000
ML02	155	2	stim2_on	1931814798	1931.8148194000
ML02	155	2	stim2_off	1932779020	1932.7790389000
ML02	155	2	response2	1933234560	1933.2345749000
ML02	155	0	trial_end	1933445058	1933.4450969000
ML02	156	0	trial_start	1934859097	1934.8591301000
ML02	156	0	fixation_on	1934859404	1934.8594139000
ML02	156	0	fixation_acquired	1935271407	1935.2714431000
ML02	156	1	stim1_on	1935299590	1935.2996083000
ML02	156	1	stim1_off	1935857221	1935.8572426000
ML02	156	1	response1	1936941824	1936.9418576000
ML02	156	2	stim2_on	1937163520	1937.1635421000
ML02	156	2	stim2_off	1938100571	1938.1005890000
ML02	156	2	response2	1939341468	1939.3414918000
ML02	156	0	trial_end	1939563287	1939.5633335000
ML02	157	0	trial_start	1940979254	1940.9792893000
ML02	157	0	fixation_on	1940979559	1940.9795701000
ML02	157	0	fixation_acquired	1941388318	1941.3883666000
ML02	157	1	stim1_on	1941421919	1941.4219385000
ML02	157	1	stim1_off	1941955592	1941.9556112000
ML02	157	1	response1	1942484296	1942.4843119000
ML02	157	2	stim2_on	1942638071	1942.6380907000
ML02	157	2	stim2_off	1943559380	1943.5593991000
ML02	157	2	response2	1944025756	1944.0257714000
ML02	157	0	trial_end	1944130375	1944.1304059000
ML02	158	0	trial_start	1945514816	1945.5148488000
ML02	158	0	fixation_on	1945515087	1945.5150983000
ML02	158	0	fixation_acquired	1945897658	1945.8976914000
ML02	158	1	stim1_on	1945944511	1945.9445317000
ML02	158	1	stim1_off	1946597315	1946.5973337000
ML02	158	1	response1	1947249393	1947.2494157000
ML02	158	2	stim2_on	1947503074	1947.5030929000
ML02	158	2	stim2_off	1948434889	1948.4349065000
ML02	158	2	response2	1949635222	1949.6352502000
ML02	158	0	trial_end	1949881764	1949.8818452000
ML02	159	0	trial_start	1951296095	1951.2961256000
ML02	159	0	fixation_on	1951296348	1951.2963606000
ML02	159	0	fixation_acquired	1951717852	1951.7178673000
ML02	159	1	stim1_on	1951747088	1951.7471046000
ML02	159	1	stim1_off	1952313831	1952.3138501000
ML02	159	1	response1	1953020889	1953.0209015000
ML02	159	2	stim2_on	1953315443	1953.3154643000
ML02	159	2	stim2_off	1954229140	1954.2291587000
ML02	159	2	response2	1954697951	1954.6979672000
ML02	159	0	trial_end	1954877631	1954.8776545000
ML02	160	0	trial_start	1956300955	1956.3009865000
ML02	160	0	fixation_on	1956301243	1956.3012547000
ML02	160	0	fixation_acquired	1956698167	1956.6982280000
ML02	160	1	stim1_on	1956734556	1956.7345749000
ML02	160	1	stim1_off	1957306226	1957.3062442000
ML02	160	1	response1	1958306813	1958.3068371000
ML02	160	2	stim2_on	1958526228	1958.5262464000
ML02	160	2	stim2_off	1959412069	1959.4120875000
ML02	160	2	response2	1959874248	1959.8742633000
ML02	160	0	trial_end	1960035201	1960.0352821000
ML02	160	0	block_feedback	1962635015	1962.6350390000
ML02	161	0	trial_start	1964909785	1964.9098166000
ML02	161	0	fixation_on	1964910049	1964.9100590000
ML02	161	0	fixation_acquired	1965369601	1965.3696345000
ML02	161	1	stim1_on	1965402757	1965.4027745000
ML02	161	1	stim1_off	1965893341	1965.8933586000
ML02	161	1	response1	1967058022	1967.0580340000
ML02	161	2	stim2_on	1967272738	1967.2727574000
ML02	161	2	stim2_off	1968016082	1968.0161003000
ML02	161	2	response2	1968528371	1968.5283832000
ML02	161	0	trial_end	1968747125	1968.7471898000
ML02	162	0	trial_start	1970180219	1970.1802506000
ML02	162	0	fixation_on	1970180490	1970.1805006000
ML02	162	0	fixation_acquired	1970571392	1970.5714264000
ML02	162	1	stim1_on	1970615814	1970.6158308000
ML02	162	1	stim1_off	1971148109	1971.1481279000
ML02	162	1	response1	1971693312	1971.6933254000
ML02	162	2	stim2_on	1971931214	1971.9312341000
ML02	162	2	stim2_off	1972837961	1972.8379793000
ML02	162	2	response2	1973428685	1973.4287181000
ML02	162	0	trial_end	1973623867	1973.6239538000
ML02	163	0	trial_start	1975040266	1975.0402972000
ML02	163	0	fixation_on	1975040523	1975.0405360000
ML02	163	0	fixation_acquired	1975472058	1975.4720751000
ML02	163	1	stim1_on	1975510393	1975.5104100000
ML02	163	1	stim1_off	1976071228	1976.0712468000
ML02	163	1	response1	1977085689	1977.0857004000
ML02	163	2	stim2_on	1977306651	1977.3066702000
ML02	163	2	stim2_off	1978122160	1978.1221787000
ML02	163	2	response2	1978800035	1978.8000686000
ML02	163	0	trial_end	1979019878	1979.0199608000
ML02	164	0	trial_start	1980443522	1980.4435554000
ML02	164	0	fixation_on	1980443808	1980.4438188000
ML02	164	0	fixation_acquired	1980851631	1980.8516984000
ML02	164	1	stim1_on	1980890248	1980.8902662000
ML02	164	1	stim1_off	1981575994	1981.5760126000
ML02	164	1	response1	1982319790	1982.3198018000
ML02	164	2	stim2_on	1982637230	1982.6372493000
ML02	164	2	stim2_off	1983436699	1983.4367171000
ML02	164	2	response2	1984095890	1984.0959054000
ML02	164	0	trial_end	1984329219	1984.3293000000
ML02	165	0	trial_start	1985769975	1985.7700679000
ML02	165	0	fixation_on	1985770380	1985.7703925000
ML02	165	0	fixation_acquired	1986177872	1986.1779181000
ML02	165	1	stim1_on	1986221010	1986.2210291000
ML02	165	1	stim1_off	1986919432	1986.9194506000
ML02	165	1	response1	1987597078	1987.5970899000
ML02	165	2	stim2_on	1987876726	1987.8767443000
ML02	165	2	stim2_off	1988851249	1988.8512677000
ML02	165	2	response2	1989293873	1989.2938856000
ML02	165	0	trial_end	1989514464	1989.5144865000
ML02	166	0	trial_start	1990942590	1990.9426667000
ML02	166	0	fixation_on	1990942967	1990.9429784000
ML02	166	0	fixation_acquired	1991359141	1991.3591762000
ML02	166	1	stim1_on	1991394827	1991.3948460000
ML02	166	1	stim1_off	1992017636	1992.0176539000
ML02	166	1	response1	1993007286	1993.0073208000
ML02	166	2	stim2_on	1993291877	1993.2918957000
ML02	166	2	stim2_off	1994054952	1994.0549895000
ML02	166	2	response2	1994538436	1994.5384508000
ML02	166	0	trial_end	1994707147	1994.7071663000
ML02	167	0	trial_start	1996141863	1996.1418961000
ML02	167	0	fixation_on	1996142197	1996.1422080000
ML02	167	0	fixation_acquired	1996556104	1996.5561413000
ML02	167	1	stim1_on	1996598744	1996.5987609000
ML02	167	1	stim1_off	1997290912	1997.2909304000
ML02	167	1	response1	1997798753	1997.7987680000
ML02	167	2	stim2_on	1997989988	1997.9900083000
ML02	167	2	stim2_off	1998849805	1998.8498264000
ML02	167	2	response2	1999318794	1999.3188094000
ML02	167	0	trial_end	1999422435	1999.4224648000
ML02	168	0	trial_start	2000821151	2000.8211854000
ML02	168	0	fixation_on	2000821523	2000.8215370000
ML02	168	0	fixation_acquired	2001243488	2001.2435267000
ML02	168	1	stim1_on	2001280586	2001.2806031000
ML02	168	1	stim1_off	2001773779	2001.7737973000
ML02	168	1	response1	2002448998	2002.4490100000
ML02	168	2	stim2_on	2002697899	2002.6979182000
ML02	168	2	stim2_off	2003611396	2003.6114375000
ML02	168	2	response2	2004068245	2004.0682601000
ML02	168	0	trial_end	2004246599	2004.2466183000
ML02	169	0	trial_start	2005706554	2005.7065874000
ML02	169	0	fixation_on	2005706902	2005.7069127000
ML02	169	0	fixation_acquired	2006123800	2006.1238371000
ML02	169	1	stim1_on	2006175873	2006.1758911000
ML02	169	1	stim1_off	2006704625	2006.7046430000
ML02	169	1	response1	2007707555	2007.7075894000
ML02	169	2	stim2_on	2007933211	2007.9332312000
ML02	169	2	stim2_off	2008738224	2008.7382427000
ML02	169	2	response2	2009226235	2009.2262497000
ML02	169	0	trial_end	2009327525	2009.3275499000
ML02	170	0	trial_start	2010742896	2010.7429281000
ML02	170	0	fixation_on	2010743203	2010.7432162000
ML02	170	0	fixation_acquired	2011137862	2011.1378845000
ML02	170	1	stim1_on	2011169657	2011.1696930000
ML02	170	1	stim1_off	2011897763	2011.8977812000
ML02	170	1	response1	2012960872	2012.9609053000
ML02	170	2	stim2_on	2013255273	2013.2552915000
ML02	170	2	stim2_off	2014120581	2014.1206220000
ML02	170	2	response2	2016125548	2016.1255658000
ML02	170	0	trial_end	2016313563	2016.3136444000
ML02	170	0	block_feedback	2019930692	2019.9307170000
ML02	171	0	trial_start	2022481436	2022.4815160000
ML02	171	0	fixation_on	2022481827	2022.4818373000
ML02	171	0	fixation_acquired	2022937203	2022.9372258000
ML02	171	1	stim1_on	2022967908	2022.9679272000
ML02	171	1	stim1_off	2023680787	2023.6808045000
ML02	171	1	response1	2024238468	2024.2384805000
ML02	171	2	stim2_on	2024507352	2024.5073706000
ML02	171	2	stim2_off	2025447348	2025.4473672000
ML02	171	2	response2	2026081626	2026.0816382000
ML02	171	0	trial_end	2026317100	2026.3171834000
ML02	172	0	trial_start	2027785589	2027.7856544000
ML02	172	0	fixation_on	2027786005	2027.7860160000
ML02	172	0	fixation_acquired	2028211525	2028.2115616000
ML02	172	1	stim1_on	2028247185	2028.2472030000
ML02	172	1	stim1_off	2028925953	2028.9259711000
ML02	172	1	response1	2029691517	2029.6915607000
ML02	172	2	stim2_on	2030015155	2030.0151741000
ML02	172	2	stim2_off	2030823216	2030.8232345000
ML02	172	2	response2	2031291271	2031.2912864000
ML02	172	0	trial_end	2031463820	2031.4638398000
ML02	173	0	trial_start	2032905655	2032.9057339000
ML02	173	0	fixation_on	2032906118	2032.9061327000
ML02	173	0	fixation_acquired	2033330302	2033.3303383000
ML02	173	1	stim1_on	2033362241	2033.3622602000
ML02	173	1	stim1_off	2033895053	2033.8950715000
ML02	173	1	response1	2034445747	2034.4457615000
ML02	173	2	stim2_on	2034685893	2034.6859116000
ML02	173	2	stim2_off	2035662644	2035.6626638000
ML02	173	2	response2	2036379013	2036.3790446000
ML02	173	0	trial_end	2036600411	2036.6004945000
ML02	174	0	trial_start	2038047153	2038.0471846000
ML02	174	0	fixation_on	2038047452	2038.0474654000
ML02	174	0	fixation_acquired	2038472638	2038.4726742000
ML02	174	1	stim1_on	2038516637	2038.5166551000
ML02	174	1	stim1_off	2039221485	2039.2215040000
ML02	174	1	response1	2039744378	2039.7443920000
ML02	174	2	stim2_on	2039977669	2039.9776882000
ML02	174	2	stim2_off	2040897477	2040.8974960000
ML02	174	2	response2	2041365976	2041.3659909000
ML02	174	0	trial_end	2041508188	2041.5082088000
ML02	175	0	trial_start	2042933997	2042.9340304000
ML02	175	0	fixation_on	2042934298	2042.9343092000
ML02	175	0	fixation_acquired	2043356279	2043.3562911000
ML02	175	1	stim1_on	2043388117	2043.3881346000
ML02	175	1	stim1_off	2044108472	2044.1084908000
ML02	175	1	response1	2044617856	2044.6178712000
ML02	175	2	stim2_on	2044747512	2044.7475312000
ML02	175	2	stim2_off	2045483967	2045.4839848000
ML02	175	2	response2	2046273740	2046.2737627000
ML02	175	0	trial_end	2046487704	2046.4877237000
ML02	176	0	trial_start	2047927438	2047.9274713000
ML02	176	0	fixation_on	2047927751	2047.9277631000
ML02	176	0	fixation_acquired	2048342309	2048.3423413000
ML02	176	1	stim1_on	2048372726	2048.3727448000
ML02	176	1	stim1_off	2048991805	2048.9918237000
ML02	176	1	response1	2049711645	2049.7116568000
ML02	176	2	stim2_on	2050005330	2050.0053492000
ML02	176	2	stim2_off	2050918630	2050.9186491000
ML02	176	2	response2	2051732492	2051.7325143000
ML02	176	0	trial_end	2051906529	2051.9066485000
ML02	177	0	trial_start	2053372960	2053.3729930000
ML02	177	0	fixation_on	2053373300	2053.3733113000
ML02	177	0	fixation_acquired	2053777492	2053.7775277000
ML02	177	1	stim1_on	2053815400	2053.8154175000
ML02	177	1	stim1_off	2054322975	2054.3229953000
ML02	177	1	response1	2055307045	2055.3070682000
ML02	177	2	stim2_on	2055556531	2055.5565502000
ML02	177	2	stim2_off	2056468424	2056.4684425000
ML02	177	2	response2	2056958695	2056.9587070000
ML02	177	0	trial_end	2057213776	2057.2138585000
ML02	178	0	trial_start	2058687207	2058.6872413000
ML02	178	0	fixation_on	2058687556	2058.6875680000
ML02	178	0	fixation_acquired	2059116452	2059.1164903000
ML02	178	1	stim1_on	2059150924	2059.1509434000
ML02	178	1	stim1_off	2059884809	2059.8848277000
ML02	178	1	response1	2060394443	2060.3944603000
ML02	178	2	stim2_on	2060577503	2060.5775215000
ML02	178	2	stim2_off	2061386909	2061.3869275000
ML02	178	2	response2	2062045438	2062.0454504000
ML02	178	0	trial_end	2062265270	2062.2652936000
ML02	179	0	trial_start	2063717114	2063.7171458000
ML02	179	0	fixation_on	2063717427	2063.7174403000
ML02	179	0	fixation_acquired	2064161452	2064.1614883000
ML02	179	1	stim1_on	2064198301	2064.1983192000
ML02	179	1	stim1_off	2064869559	2064.8695780000
ML02	179	1	response1	2065679793	2065.6798054000
ML02	179	2	stim2_on	2065955495	2065.9555158000
ML02	179	2	stim2_off	2066725759	2066.7257767000
ML02	179	2	response2	2067231679	2067.2316912000
ML02	179	0	trial_end	2067460155	2067.4602020000
ML02	180	0	trial_start	2068929827	2068.9298580000
ML02	180	0	fixation_on	2068930144	2068.9301563000
ML02	180	0	fixation_acquired	2069339442	2069.3394774000
ML02	180	1	stim1_on	2069382981	2069.3830194000
ML02	180	1	stim1_off	2069992743	2069.9927622000
ML02	180	1	response1	2070605182	2070.6051961000
ML02	180	2	stim2_on	2070848512	2070.8485330000
ML02	180	2	stim2_off	2071654376	2071.6543940000
ML02	180	2	response2	2072461828	2072.4618617000
ML02	180	0	trial_end	2072697336	2072.6973559000
ML02	180	0	block_feedback	2074650671	2074.6506955000
ML02	181	0	trial_start	2076871114	2076.8711474000
ML02	181	0	fixation_on	2076871465	2076.8714789000
ML02	181	0	fixation_acquired	2077342075	2077.3421103000
ML02	181	1	stim1_on	2077378444	2077.3784613000
ML02	181	1	stim1_off	2077917981	2077.9179991000
ML02	181	1	response1	2078782345	2078.7823652000
ML02	181	2	stim2_on	2079069947	2079.0699682000
ML02	181	2	stim2_off	2080022068	2080.0220856000
ML02	181	2	response2	2080485974	2080.4859888000
ML02	181	0	trial_end	2080640130	2080.6401905000
ML02	182	0	trial_start	2082089755	2082.0897899000
ML02	182	0	fixation_on	2082090107	2082.0901212000
ML02	182	0	fixation_acquired	2082501366	2082.5014029000
ML02	182	1	stim1_on	2082546122	2082.5461408000
ML02	182	1	stim1_off	2083257640	2083.2576595000
ML02	182	1	response1	2083771102	2083.7711170000
ML02	182	2	stim2_on	2083876955	2083.8769740000
ML02	182	2	stim2_off	2084761270	2084.7612894000
ML02	182	2	response2	2086798209	2086.7982288000
ML02	182	0	trial_end	2087004176	2087.0042601000
ML02	183	0	trial_start	2088457288	2088.4573204000
ML02	183	0	fixation_on	2088457649	2088.4576611000
ML02	183	0	fixation_acquired	2088911203	2088.9112380000
ML02	183	1	stim1_on	2088946724	2088.9467407000
ML02	183	1	stim1_off	2089665604	2089.6656218000
ML02	183	1	response1	2090317203	2090.3172367000
ML02	183	2	stim2_on	2090582054	2090.5820902000
ML02	183	2	stim2_off	2091342654	2091.3426742000
ML02	183	2	response2	2092334184	2092.3342263000
ML02	183	0	trial_end	2092558436	2092.5584704000
ML02	184	0	trial_start	2094013295	2094.0133279000
ML02	184	0	fixation_on	2094013649	2094.0136612000
ML02	184	0	fixation_acquired	2094449339	2094.4493860000
ML02	184	1	stim1_on	2094492813	2094.4928301000
ML02	184	1	stim1_off	2095148146	2095.1481654000
ML02	184	1	response1	2095670227	2095.6702427000
ML02	184	2	stim2_on	2095868119	2095.8681378000
ML02	184	2	stim2_off	2096714160	2096.7141785000
ML02	184	2	response2	2097194290	2097.1943059000
ML02	184	0	trial_end	2097304133	2097.3041569000
ML02	185	0	trial_start	2098744767	2098.7448051000
ML02	185	0	fixation_on	2098745119	2098.7451313000
ML02	185	0	fixation_acquired	2099173113	2099.1731487000
ML02	185	1	stim1_on	2099212509	2099.2125261000
ML02	185	1	stim1_off	2099796469	2099.7964882000
ML02	185	1	response1	2100364504	2100.3645163000
ML02	185	2	stim2_on	2100630794	2100.6308154000
ML02	185	2	stim2_off	2101510918	2101.5109357000
ML02	185	2	response2	2101986569	2101.9865838000
ML02	185	0	trial_end	2102174511	2102.1745727000
ML02	186	0	trial_start	2103649714	2103.6497462000
ML02	186	0	fixation_on	2103650200	2103.6502132000
ML02	186	0	fixation_acquired	2104074484	2104.0745200000
ML02	186	1	stim1_on	2104116641	2104.1166747000
ML02	186	1	stim1_off	2104779899	2104.7799184000
ML02	186	1	response1	2105996712	2105.9967242000
ML02	186	2	stim2_on	2106240438	2106.2404572000
ML02	186	2	stim2_off	2107225254	2107.2252739000
ML02	186	2	response2	2107774748	2107.7747822000
ML02	186	0	trial_end	2107996766	2107.9968273000
ML02	187	0	trial_start	2109480220	2109.4802533000
ML02	187	0	fixation_on	2109480579	2109.4805914000
ML02	187	0	fixation_acquired	2109909197	2109.9092097000
ML02	187	1	stim1_on	2109937015	2109.9370331000
ML02	187	1	stim1_off	2110580962	2110.5809811000
ML02	187	1	response1	2111727058	2111.7270703000
ML02	187	2	stim2_on	2111952721	2111.9527407000
ML02	187	2	stim2_off	2112830188	2112.8302063000
ML02	187	2	response2	2113403625	2113.4036374000
ML02	187	0	trial_end	2113609135	2113.6092153000
ML02	188	0	trial_start	2115079956	2115.0799900000
ML02	188	0	fixation_on	2115080313	2115.0803275000
ML02	188	0	fixation_acquired	2115517743	2115.5177760000
ML02	188	1	stim1_on	2115562630	2115.5626464000
ML02	188	1	stim1_off	2116167252	2116.1672705000
ML02	188	1	response1	2117633202	2117.6332230000
ML02	188	2	stim2_on	2117872440	2117.8724617000
ML02	188	2	stim2_off	2118866871	2118.8668898000
ML02	188	2	response2	2119676853	2119.6768810000
ML02	188	0	trial_end	2119898231	2119.8982919000
ML02	189	0	trial_start	2121404771	2121.4048031000
ML02	189	0	fixation_on	2121405180	2121.4051925000
ML02	189	0	fixation_acquired	2121861513	2121.8615361000
ML02	189	1	stim1_on	2121894270	2121.8942883000
ML02	189	1	stim1_off	2122471327	2122.4713471000
ML02	189	1	response1	2123436105	2123.4361173000
ML02	189	2	stim2_on	2123670189	2123.6702099000
ML02	189	2	stim2_off	2124634807	2124.6348259000
ML02	189	2	response2	2125088382	2125.0883967000
ML02	189	0	trial_end	2125203336	2125.2033858000
ML02	190	0	trial_start	2126675146	2126.6751784000
ML02	190	0	fixation_on	2126675492	2126.6755033000
ML02	190	0	fixation_acquired	2127142441	2127.1424894000
ML02	190	1	stim1_on	2127178215	2127.1782346000
ML02	190	1	stim1_off	2127789308	2127.7893264000
ML02	190	1	response1	2128335163	2128.3351778000
ML02	190	2	stim2_on	2128569708	2128.5697273000
ML02	190	2	stim2_off	2129461406	2129.4614238000
ML02	190	2	response2	2129928798	2129.9288129000
ML02	190	0	trial_end	2130087925	2130.0879628000
ML02	190	0	block_feedback	2133786397	2133.7864216000
ML02	191	0	trial_start	2136550777	2136.5508086000
ML02	191	0	fixation_on	2136551108	2136.5511195000
ML02	191	0	fixation_acquired	2137036213	2137.0362479000
ML02	191	1	stim1_on	2137090609	2137.0906285000
ML02	191	1	stim1_off	2137611664	2137.6116829000
ML02	191	1	response1	2138670481	2138.6704932000
ML02	191	2	stim2_on	2138913119	2138.9131396000
ML02	191	2	stim2_off	2139843288	2139.8433064000
ML02	191	2	response2	2140875612	2140.8756301000
ML02	191	0	trial_end	2141097119	2141.0972024000
ML02	192	0	trial_start	2142581555	2142.5815862000
ML02	192	0	fixation_on	2142581875	2142.5818859000
ML02	192	0	fixation_acquired	2143034712	2143.0347484000
ML02	192	1	stim1_on	2143082170	2143.0822049000
ML02	192	1	stim1_off	2143603525	2143.6035603000
ML02	192	1	response1	2144385311	2144.3853459000
ML02	192	2	stim2_on	2144653294	2144.6533129000
ML02	192	2	stim2_off	2145624344	2145.6243628000
ML02	192	2	response2	2146109295	2146.1093075000
ML02	192	0	trial_end	2146341395	2146.3414182000
ML02	193	0	trial_start	2147829934	2147.8299678000
ML02	193	0	fixation_on	2147830277	2147.8302902000
ML02	193	0	fixation_acquired	2148275827	2148.2758745000
ML02	193	1	stim1_on	2148322475	2148.3224933000
ML02	193	1	stim1_off	2148856227	2148.8562446000
ML02	193	1	response1	2149569626	2149.5696497000
ML02	193	2	stim2_on	2149852408	2149.8524289000
ML02	193	2	stim2_off	2150802289	2150.8023076000
ML02	193	2	response2	2151342039	2151.3420667000
ML02	193	0	trial_end	2151562748	2151.5627680000
ML02	194	0	trial_start	2153036831	2153.0368646000
ML02	194	0	fixation_on	2153037201	2153.0372130000
ML02	194	0	fixation_acquired	2153468067	2153.4681143000
ML02	194	1	stim1_on	2153514276	2153.5142948000
ML02	194	1	stim1_off	2154087594	2154.0876116000
